color,answer,repeat_color_practice.thisRepN,repeat_color_practice.thisTrialN,repeat_color_practice.thisN,repeat_color_practice.thisIndex,trials_3.thisRepN,trials_3.thisTrialN,trials_3.thisN,trials_3.thisIndex,trials_2.thisRepN,trials_2.thisTrialN,trials_2.thisN,trials_2.thisIndex,key_resp_7.keys,key_resp_7.rt,key_resp_8.keys,key_resp_8.rt,key_resp_9.keys,key_resp_9.rt,key_resp_6.keys,key_resp_6.rt,key_resp_11.keys,key_resp_11.rt,colorpractice_numVertices,colorpractice_correct,key_resp_13.keys,key_resp_13.rt,color_response.keys,color_response.rt,date,frameRate,expName,participant,
,,,,,,,,,,,,,,s,0.499186731384,,,,,,,,,,,,,,,2018_Aug_09_1209,60.0293857651,Arrows_VVA_Color,1001,
,,,,,,,,,,,,,,,,d,0.434052951483,,,,,,,,,,,,,2018_Aug_09_1209,60.0293857651,Arrows_VVA_Color,1001,
,,,,,,,,,,,,,,,,,,d,0.516919334017,,,,,,,,,,,2018_Aug_09_1209,60.0293857651,Arrows_VVA_Color,1001,
#d7191c,r,0,0,0,0,0,0,0,2,,,,,,,,,,,d,1.03313182716,f,0.401142012097,4,,,,,,2018_Aug_09_1209,60.0293857651,Arrows_VVA_Color,1001,
#d7191c,r,0,0,0,0,0,1,1,1,,,,,,,,,,,,,a,0.251105219779,999,1,,,,,2018_Aug_09_1209,60.0293857651,Arrows_VVA_Color,1001,
#2c7bb6,b,0,0,0,0,0,2,2,7,,,,,,,,,,,,,f,0.217422288782,6,,,,,,2018_Aug_09_1209,60.0293857651,Arrows_VVA_Color,1001,
#d7191c,r,0,0,0,0,0,3,3,0,,,,,,,,,,,,,a,0.13435376047,999,0,,,,,2018_Aug_09_1209,60.0293857651,Arrows_VVA_Color,1001,
#2c7bb6,b,0,0,0,0,0,4,4,8,,,,,,,,,,,,,f,0.168006793527,6,,,,,,2018_Aug_09_1209,60.0293857651,Arrows_VVA_Color,1001,
#fdae61,o,0,0,0,0,0,5,5,3,,,,,,,,,,,,,a,0.152682090731,5,0,,,,,2018_Aug_09_1209,60.0293857651,Arrows_VVA_Color,1001,
#fdae61,o,0,0,0,0,0,6,6,5,,,,,,,,,,,,,f,0.184882619345,3,,,,,,2018_Aug_09_1209,60.0293857651,Arrows_VVA_Color,1001,
#fdae61,o,0,0,0,0,0,7,7,4,,,,,,,,,,,,,a,0.28426069755,999,1,,,,,2018_Aug_09_1209,60.0293857651,Arrows_VVA_Color,1001,
#2c7bb6,b,0,0,0,0,0,8,8,6,,,,,,,,,,,,,a,0.784186845174,3,,,,,,2018_Aug_09_1209,60.0293857651,Arrows_VVA_Color,1001,
#2c7bb6,b,0,0,0,0,1,0,9,8,,,,,,,,,,,,,a,0.417501986874,6,1,,,,,2018_Aug_09_1209,60.0293857651,Arrows_VVA_Color,1001,
#2c7bb6,b,0,0,0,0,1,1,10,7,,,,,,,,,,,,,a,0.284367348413,999,,,,,,2018_Aug_09_1209,60.0293857651,Arrows_VVA_Color,1001,
#fdae61,o,0,0,0,0,1,2,11,4,,,,,,,,,,,,,a,0.15094979511,3,0,,,,,2018_Aug_09_1209,60.0293857651,Arrows_VVA_Color,1001,
#fdae61,o,0,0,0,0,1,3,12,3,,,,,,,,,,,,,a,0.167693980742,5,,,,,,2018_Aug_09_1209,60.0293857651,Arrows_VVA_Color,1001,
#d7191c,r,0,0,0,0,1,4,13,0,,,,,,,,,,,,,a,0.134455056477,3,0,,,,,2018_Aug_09_1209,60.0293857651,Arrows_VVA_Color,1001,
#2c7bb6,b,0,0,0,0,1,5,14,6,,,,,,,,,,,,,a,0.117713994512,999,,,,,,2018_Aug_09_1209,60.0293857651,Arrows_VVA_Color,1001,
#d7191c,r,0,0,0,0,1,6,15,1,,,,,,,,,,,,,a,0.150780670936,4,0,,,,,2018_Aug_09_1209,60.0293857651,Arrows_VVA_Color,1001,
#d7191c,r,0,0,0,0,1,7,16,2,,,,,,,,,,,,,a,0.28409960566,6,,,,,,2018_Aug_09_1209,60.0293857651,Arrows_VVA_Color,1001,
#fdae61,o,0,0,0,0,1,8,17,5,,,,,,,,,,,,,a,0.267298747813,5,0,,,,,2018_Aug_09_1209,60.0293857651,Arrows_VVA_Color,1001,
#fdae61,o,1,0,1,0,0,0,0,5,,,,,,,,,,,d,0.31785304225,f,0.25112217682,999,,,,,,2018_Aug_09_1209,60.0293857651,Arrows_VVA_Color,1001,
#2c7bb6,b,1,0,1,0,0,1,1,8,,,,,,,,,,,,,a,0.168258917953,3,0,,,,,2018_Aug_09_1209,60.0293857651,Arrows_VVA_Color,1001,
#2c7bb6,b,1,0,1,0,0,2,2,7,,,,,,,,,,,,,f,0.166984016203,5,,,,,,2018_Aug_09_1209,60.0293857651,Arrows_VVA_Color,1001,
#fdae61,o,1,0,1,0,0,3,3,3,,,,,,,,,,,,,a,0.151470108529,6,0,,,,,2018_Aug_09_1209,60.0293857651,Arrows_VVA_Color,1001,
#fdae61,o,1,0,1,0,0,4,4,4,,,,,,,,,,,,,f,0.167909067421,4,,,,,,2018_Aug_09_1209,60.0293857651,Arrows_VVA_Color,1001,
#d7191c,r,1,0,1,0,0,5,5,1,,,,,,,,,,,,,a,0.117845188463,3,0,,,,,2018_Aug_09_1209,60.0293857651,Arrows_VVA_Color,1001,
#d7191c,r,1,0,1,0,0,6,6,0,,,,,,,,,,,,,f,0.134481830753,999,,,,,,2018_Aug_09_1209,60.0293857651,Arrows_VVA_Color,1001,
#2c7bb6,b,1,0,1,0,0,7,7,6,,,,,,,,,,,,,a,0.117510956257,3,0,,,,,2018_Aug_09_1209,60.0293857651,Arrows_VVA_Color,1001,
#d7191c,r,1,0,1,0,0,8,8,2,,,,,,,,,,,,,f,0.151308570401,6,,,,,,2018_Aug_09_1209,60.0293857651,Arrows_VVA_Color,1001,
#fdae61,o,1,0,1,0,1,0,9,5,,,,,,,,,,,,,a,0.10129467009,4,0,,,,,2018_Aug_09_1209,60.0293857651,Arrows_VVA_Color,1001,
#2c7bb6,b,1,0,1,0,1,1,10,7,,,,,,,,,,,,,f,0.167607410584,5,,,,,,2018_Aug_09_1209,60.0293857651,Arrows_VVA_Color,1001,
#2c7bb6,b,1,0,1,0,1,2,11,6,,,,,,,,,,,,,a,0.10142988018,4,1,,,,,2018_Aug_09_1209,60.0293857651,Arrows_VVA_Color,1001,
#d7191c,r,1,0,1,0,1,3,12,1,,,,,,,,,,,,,f,0.168377171003,5,,,,,,2018_Aug_09_1209,60.0293857651,Arrows_VVA_Color,1001,
#d7191c,r,1,0,1,0,1,4,13,2,,,,,,,,,,,,,a,0.184557758135,4,1,,,,,2018_Aug_09_1209,60.0293857651,Arrows_VVA_Color,1001,
#2c7bb6,b,1,0,1,0,1,5,14,8,,,,,,,,,,,,,f,0.234535959415,3,,,,,,2018_Aug_09_1209,60.0293857651,Arrows_VVA_Color,1001,
#fdae61,o,1,0,1,0,1,6,15,3,,,,,,,,,,,,,a,0.21840490469,999,0,,,,,2018_Aug_09_1209,60.0293857651,Arrows_VVA_Color,1001,
#d7191c,r,1,0,1,0,1,7,16,0,,,,,,,,,,,,,f,0.283932712675,5,,,,,,2018_Aug_09_1209,60.0293857651,Arrows_VVA_Color,1001,
#fdae61,o,1,0,1,0,1,8,17,4,,,,,,,,,,,,,a,0.267191204472,6,0,,,,,2018_Aug_09_1209,60.0293857651,Arrows_VVA_Color,1001,
,,,,,,,,,,,,,,,,,,,,,,,,,,d,0.500925720573,,,2018_Aug_09_1209,60.0293857651,Arrows_VVA_Color,1001,
#fdae61,o,,,,,,,,,0,0,0,32,,,,,,,,,,,4,,,,f,0.60138904941,2018_Aug_09_1209,60.0293857651,Arrows_VVA_Color,1001,
#d7191c,r,,,,,,,,,0,1,1,15,,,,,,,,,,,999,0,,,a,0.218482103852,2018_Aug_09_1209,60.0293857651,Arrows_VVA_Color,1001,
#d7191c,r,,,,,,,,,0,2,2,7,,,,,,,,,,,5,,,,f,0.217971161428,2018_Aug_09_1209,60.0293857651,Arrows_VVA_Color,1001,
#2c7bb6,b,,,,,,,,,0,3,3,55,,,,,,,,,,,999,0,,,a,0.151160865649,2018_Aug_09_1209,60.0293857651,Arrows_VVA_Color,1001,
#d7191c,r,,,,,,,,,0,4,4,0,,,,,,,,,,,6,,,,f,0.150986386619,2018_Aug_09_1209,60.0293857651,Arrows_VVA_Color,1001,
#2c7bb6,b,,,,,,,,,0,5,5,54,,,,,,,,,,,4,0,,,a,0.150395567609,2018_Aug_09_1209,60.0293857651,Arrows_VVA_Color,1001,
#fdae61,o,,,,,,,,,0,6,6,37,,,,,,,,,,,3,,,,f,0.168241960913,2018_Aug_09_1209,60.0293857651,Arrows_VVA_Color,1001,
#d7191c,r,,,,,,,,,0,7,7,6,,,,,,,,,,,999,0,,,a,0.0849543297791,2018_Aug_09_1209,60.0293857651,Arrows_VVA_Color,1001,
#2c7bb6,b,,,,,,,,,0,8,8,43,,,,,,,,,,,6,,,,f,0.184396220007,2018_Aug_09_1209,60.0293857651,Arrows_VVA_Color,1001,
#d7191c,r,,,,,,,,,0,9,9,3,,,,,,,,,,,3,0,,,a,0.217792220021,2018_Aug_09_1209,60.0293857651,Arrows_VVA_Color,1001,
#d7191c,r,,,,,,,,,0,10,10,1,,,,,,,,,,,999,,,,f,0.234655997416,2018_Aug_09_1209,60.0293857651,Arrows_VVA_Color,1001,
#d7191c,r,,,,,,,,,0,11,11,9,,,,,,,,,,,6,1,,,a,0.218715486286,2018_Aug_09_1209,60.0293857651,Arrows_VVA_Color,1001,
#fdae61,o,,,,,,,,,0,12,12,21,,,,,,,,,,,3,,,,f,0.21745263296,2018_Aug_09_1209,60.0293857651,Arrows_VVA_Color,1001,
#fdae61,o,,,,,,,,,0,13,13,28,,,,,,,,,,,4,1,,,a,0.167782335851,2018_Aug_09_1209,60.0293857651,Arrows_VVA_Color,1001,
#2c7bb6,b,,,,,,,,,0,14,14,60,,,,,,,,,,,3,,,,f,0.217440584536,2018_Aug_09_1209,60.0293857651,Arrows_VVA_Color,1001,
#d7191c,r,,,,,,,,,0,15,15,10,,,,,,,,,,,999,0,,,a,0.185424798423,2018_Aug_09_1209,60.0293857651,Arrows_VVA_Color,1001,
#fdae61,o,,,,,,,,,0,16,16,36,,,,,,,,,,,5,,,,f,0.251081569169,2018_Aug_09_1209,60.0293857651,Arrows_VVA_Color,1001,
#fdae61,o,,,,,,,,,0,17,17,33,,,,,,,,,,,4,1,,,a,0.217866741754,2018_Aug_09_1209,60.0293857651,Arrows_VVA_Color,1001,
#2c7bb6,b,,,,,,,,,0,18,18,52,,,,,,,,,,,6,,,,f,0.26685429484,2018_Aug_09_1209,60.0293857651,Arrows_VVA_Color,1001,
#2c7bb6,b,,,,,,,,,0,19,19,61,,,,,,,,,,,999,1,,,a,0.284518176833,2018_Aug_09_1209,60.0293857651,Arrows_VVA_Color,1001,
#2c7bb6,b,,,,,,,,,0,20,20,62,,,,,,,,,,,3,,,,f,0.350834933468,2018_Aug_09_1209,60.0293857651,Arrows_VVA_Color,1001,
#d7191c,r,,,,,,,,,0,21,21,19,,,,,,,,,,,5,0,,,a,0.267093032129,2018_Aug_09_1209,60.0293857651,Arrows_VVA_Color,1001,
#fdae61,o,,,,,,,,,0,22,22,22,,,,,,,,,,,999,,,,f,0.134474690947,2018_Aug_09_1209,60.0293857651,Arrows_VVA_Color,1001,
#fdae61,o,,,,,,,,,0,23,23,41,,,,,,,,,,,5,1,,,a,0.216930088351,2018_Aug_09_1209,60.0293857651,Arrows_VVA_Color,1001,
#2c7bb6,b,,,,,,,,,0,24,24,44,,,,,,,,,,,3,,,,f,0.184631833632,2018_Aug_09_1209,60.0293857651,Arrows_VVA_Color,1001,
#fdae61,o,,,,,,,,,0,25,25,30,,,,,,,,,,,5,0,,,a,0.150839128104,2018_Aug_09_1209,60.0293857651,Arrows_VVA_Color,1001,
#2c7bb6,b,,,,,,,,,0,26,26,45,,,,,,,,,,,3,,,,f,0.166712703545,2018_Aug_09_1209,60.0293857651,Arrows_VVA_Color,1001,
#fdae61,o,,,,,,,,,0,27,27,24,,,,,,,,,,,6,0,,,a,0.133581768861,2018_Aug_09_1209,60.0293857651,Arrows_VVA_Color,1001,
#2c7bb6,b,,,,,,,,,0,28,28,47,,,,,,,,,,,3,,,,f,0.1842819831,2018_Aug_09_1209,60.0293857651,Arrows_VVA_Color,1001,
#d7191c,r,,,,,,,,,0,29,29,4,,,,,,,,,,,5,0,,,a,0.117550671432,2018_Aug_09_1209,60.0293857651,Arrows_VVA_Color,1001,
#2c7bb6,b,,,,,,,,,0,30,30,59,,,,,,,,,,,3,,,,f,0.151699028584,2018_Aug_09_1209,60.0293857651,Arrows_VVA_Color,1001,
#2c7bb6,b,,,,,,,,,0,31,31,49,,,,,,,,,,,999,1,,,a,0.101317428225,2018_Aug_09_1209,60.0293857651,Arrows_VVA_Color,1001,
#d7191c,r,,,,,,,,,0,32,32,11,,,,,,,,,,,6,,,,f,0.167909513659,2018_Aug_09_1209,60.0293857651,Arrows_VVA_Color,1001,
#d7191c,r,,,,,,,,,0,33,33,20,,,,,,,,,,,3,1,,,a,0.151720448006,2018_Aug_09_1209,60.0293857651,Arrows_VVA_Color,1001,
#2c7bb6,b,,,,,,,,,0,34,34,48,,,,,,,,,,,6,,,,f,0.284219643661,2018_Aug_09_1209,60.0293857651,Arrows_VVA_Color,1001,
#2c7bb6,b,,,,,,,,,0,35,35,51,,,,,,,,,,,4,1,,,a,0.334993487157,2018_Aug_09_1209,60.0293857651,Arrows_VVA_Color,1001,
#2c7bb6,b,,,,,,,,,0,36,36,58,,,,,,,,,,,999,,,,f,0.251641151526,2018_Aug_09_1209,60.0293857651,Arrows_VVA_Color,1001,
#d7191c,r,,,,,,,,,0,37,37,8,,,,,,,,,,,6,0,,,a,0.201171196055,2018_Aug_09_1209,60.0293857651,Arrows_VVA_Color,1001,
#fdae61,o,,,,,,,,,0,38,38,35,,,,,,,,,,,999,,,,f,0.168593150158,2018_Aug_09_1209,60.0293857651,Arrows_VVA_Color,1001,
#fdae61,o,,,,,,,,,0,39,39,26,,,,,,,,,,,5,1,,,a,0.184657715432,2018_Aug_09_1209,60.0293857651,Arrows_VVA_Color,1001,
