color,answer,repeat_color_practice.thisRepN,repeat_color_practice.thisTrialN,repeat_color_practice.thisN,repeat_color_practice.thisIndex,trials_3.thisRepN,trials_3.thisTrialN,trials_3.thisN,trials_3.thisIndex,trials_2.thisRepN,trials_2.thisTrialN,trials_2.thisN,trials_2.thisIndex,key_resp_7.keys,key_resp_7.rt,key_resp_8.keys,key_resp_8.rt,key_resp_9.keys,key_resp_9.rt,key_resp_6.keys,key_resp_6.rt,key_resp_11.keys,key_resp_11.rt,colorpractice_correct,colorpractice_numVertices,key_resp_13.keys,key_resp_13.rt,color_response.keys,color_response.rt,date,frameRate,expName,participant,
,,,,,,,,,,,,,,f,13.575230918,,,,,,,,,,,,,,,2018_Jul_20_1125,60.0384458784,Arrows_VVA_Color,1001,
,,,,,,,,,,,,,,,,f,9.87915019855,,,,,,,,,,,,,2018_Jul_20_1125,60.0384458784,Arrows_VVA_Color,1001,
,,,,,,,,,,,,,,,,,,f,9.04587926443,,,,,,,,,,,2018_Jul_20_1125,60.0384458784,Arrows_VVA_Color,1001,
#fdae61,o,0,0,0,0,0,0,0,3,,,,,,,,,,,f,30.7687044807,f,5.83121689179,1,999,,,,,2018_Jul_20_1125,60.0384458784,Arrows_VVA_Color,1001,
#d7191c,r,0,0,0,0,0,1,1,1,,,,,,,,,,,,,a,1.60117932284,0,5,,,,,2018_Jul_20_1125,60.0384458784,Arrows_VVA_Color,1001,
#fdae61,o,0,0,0,0,0,2,2,4,,,,,,,,,,,,,a,3.16672549598,0,3,,,,,2018_Jul_20_1125,60.0384458784,Arrows_VVA_Color,1001,
#2c7bb6,b,0,0,0,0,0,3,3,6,,,,,,,,,,,,,a,1.91720732352,0,4,,,,,2018_Jul_20_1125,60.0384458784,Arrows_VVA_Color,1001,
#d7191c,r,0,0,0,0,0,4,4,2,,,,,,,,,,,,,f,3.11595588829,1,6,,,,,2018_Jul_20_1125,60.0384458784,Arrows_VVA_Color,1001,
#2c7bb6,b,0,0,0,0,0,5,5,7,,,,,,,,,,,,,a,3.39952082757,0,4,,,,,2018_Jul_20_1125,60.0384458784,Arrows_VVA_Color,1001,
#2c7bb6,b,0,0,0,0,0,6,6,8,,,,,,,,,,,,,f,1.4509102625,0,999,,,,,2018_Jul_20_1125,60.0384458784,Arrows_VVA_Color,1001,
#fdae61,o,0,0,0,0,0,7,7,5,,,,,,,,,,,,,a,4.1978163696,0,3,,,,,2018_Jul_20_1125,60.0384458784,Arrows_VVA_Color,1001,
#d7191c,r,0,0,0,0,0,8,8,0,,,,,,,,,,,,,a,2.26695722835,0,4,,,,,2018_Jul_20_1125,60.0384458784,Arrows_VVA_Color,1001,
#fdae61,o,1,0,1,0,0,0,0,5,,,,,,,,,,,f,22.039535964,f,4.58185624202,1,4,,,,,2018_Jul_20_1125,60.0384458784,Arrows_VVA_Color,1001,
#fdae61,o,1,0,1,0,0,1,1,3,,,,,,,,,,,,,f,1.41624277594,0,5,,,,,2018_Jul_20_1125,60.0384458784,Arrows_VVA_Color,1001,
#d7191c,r,1,0,1,0,0,2,2,2,,,,,,,,,,,,,a,2.78227508281,0,6,,,,,2018_Jul_20_1125,60.0384458784,Arrows_VVA_Color,1001,
#fdae61,o,1,0,1,0,0,3,3,4,,,,,,,,,,,,,a,1.96613842272,0,3,,,,,2018_Jul_20_1125,60.0384458784,Arrows_VVA_Color,1001,
#2c7bb6,b,1,0,1,0,0,4,4,6,,,,,,,,,,,,,a,1.66659586327,0,5,,,,,2018_Jul_20_1125,60.0384458784,Arrows_VVA_Color,1001,
#2c7bb6,b,1,0,1,0,0,5,5,7,,,,,,,,,,,,,f,1.49945804162,0,6,,,,,2018_Jul_20_1125,60.0384458784,Arrows_VVA_Color,1001,
#d7191c,r,1,0,1,0,0,6,6,0,,,,,,,,,,,,,a,1.3669337115,0,999,,,,,2018_Jul_20_1125,60.0384458784,Arrows_VVA_Color,1001,
#2c7bb6,b,1,0,1,0,0,7,7,8,,,,,,,,,,,,,a,2.03328682025,0,5,,,,,2018_Jul_20_1125,60.0384458784,Arrows_VVA_Color,1001,
#d7191c,r,1,0,1,0,0,8,8,1,,,,,,,,,,,,,a,2.06607965294,0,4,,,,,2018_Jul_20_1125,60.0384458784,Arrows_VVA_Color,1001,
,,,,,,,,,,,,,,,,,,,,,,,,,,f,11.8445438469,,,2018_Jul_20_1125,60.0384458784,Arrows_VVA_Color,1001,
#d7191c,r,,,,,,,,,0,0,0,5,,,,,,,,,,,1,999,,,f,4.88178122909,2018_Jul_20_1125,60.0384458784,Arrows_VVA_Color,1001,
#d7191c,r,,,,,,,,,0,1,1,7,,,,,,,,,,,0,3,,,f,1.28298125748,2018_Jul_20_1125,60.0384458784,Arrows_VVA_Color,1001,
#fdae61,o,,,,,,,,,0,2,2,26,,,,,,,,,,,0,999,,,a,1.35002880478,2018_Jul_20_1125,60.0384458784,Arrows_VVA_Color,1001,
#d7191c,r,,,,,,,,,0,3,3,16,,,,,,,,,,,0,3,,,a,1.41615352796,2018_Jul_20_1125,60.0384458784,Arrows_VVA_Color,1001,
#fdae61,o,,,,,,,,,0,4,4,40,,,,,,,,,,,0,5,,,a,1.3663344113,2018_Jul_20_1125,60.0384458784,Arrows_VVA_Color,1001,
#2c7bb6,b,,,,,,,,,0,5,5,52,,,,,,,,,,,0,3,,,a,1.26672161368,2018_Jul_20_1125,60.0384458784,Arrows_VVA_Color,1001,
#d7191c,r,,,,,,,,,0,6,6,8,,,,,,,,,,,0,5,,,a,1.21710642867,2018_Jul_20_1125,60.0384458784,Arrows_VVA_Color,1001,
#2c7bb6,b,,,,,,,,,0,7,7,59,,,,,,,,,,,0,3,,,a,1.36591762322,2018_Jul_20_1125,60.0384458784,Arrows_VVA_Color,1001,
#fdae61,o,,,,,,,,,0,8,8,35,,,,,,,,,,,0,999,,,a,1.98322807277,2018_Jul_20_1125,60.0384458784,Arrows_VVA_Color,1001,
#d7191c,r,,,,,,,,,0,9,9,19,,,,,,,,,,,0,5,,,a,1.44984508782,2018_Jul_20_1125,60.0384458784,Arrows_VVA_Color,1001,
#fdae61,o,,,,,,,,,0,10,10,41,,,,,,,,,,,0,6,,,a,2.19930502596,2018_Jul_20_1125,60.0384458784,Arrows_VVA_Color,1001,
#d7191c,r,,,,,,,,,0,11,11,3,,,,,,,,,,,0,999,,,a,2.1663961709,2018_Jul_20_1125,60.0384458784,Arrows_VVA_Color,1001,
#2c7bb6,b,,,,,,,,,0,12,12,58,,,,,,,,,,,0,5,,,a,1.4662912599,2018_Jul_20_1125,60.0384458784,Arrows_VVA_Color,1001,
#2c7bb6,b,,,,,,,,,0,13,13,44,,,,,,,,,,,0,4,,,f,1.15035652337,2018_Jul_20_1125,60.0384458784,Arrows_VVA_Color,1001,
#fdae61,o,,,,,,,,,0,14,14,23,,,,,,,,,,,0,6,,,a,1.24962750124,2018_Jul_20_1125,60.0384458784,Arrows_VVA_Color,1001,
#fdae61,o,,,,,,,,,0,15,15,27,,,,,,,,,,,0,5,,,f,1.96591396404,2018_Jul_20_1125,60.0384458784,Arrows_VVA_Color,1001,
#fdae61,o,,,,,,,,,0,16,16,37,,,,,,,,,,,0,3,,,f,1.23310055971,2018_Jul_20_1125,60.0384458784,Arrows_VVA_Color,1001,
#d7191c,r,,,,,,,,,0,17,17,9,,,,,,,,,,,0,6,,,a,1.94928661856,2018_Jul_20_1125,60.0384458784,Arrows_VVA_Color,1001,
#fdae61,o,,,,,,,,,0,18,18,38,,,,,,,,,,,0,999,,,a,2.14993705787,2018_Jul_20_1125,60.0384458784,Arrows_VVA_Color,1001,
#2c7bb6,b,,,,,,,,,0,19,19,54,,,,,,,,,,,0,5,,,a,1.46633856134,2018_Jul_20_1125,60.0384458784,Arrows_VVA_Color,1001,
#2c7bb6,b,,,,,,,,,0,20,20,57,,,,,,,,,,,0,999,,,f,1.28376440852,2018_Jul_20_1125,60.0384458784,Arrows_VVA_Color,1001,
#fdae61,o,,,,,,,,,0,21,21,31,,,,,,,,,,,0,6,,,a,1.28298214995,2018_Jul_20_1125,60.0384458784,Arrows_VVA_Color,1001,
#2c7bb6,b,,,,,,,,,0,22,22,42,,,,,,,,,,,0,4,,,a,2.03283076307,2018_Jul_20_1125,60.0384458784,Arrows_VVA_Color,1001,
#fdae61,o,,,,,,,,,0,23,23,25,,,,,,,,,,,0,3,,,a,1.51616258662,2018_Jul_20_1125,60.0384458784,Arrows_VVA_Color,1001,
#d7191c,r,,,,,,,,,0,24,24,18,,,,,,,,,,,0,5,,,a,1.64939643821,2018_Jul_20_1125,60.0384458784,Arrows_VVA_Color,1001,
#d7191c,r,,,,,,,,,0,25,25,2,,,,,,,,,,,0,3,,,f,1.63304085282,2018_Jul_20_1125,60.0384458784,Arrows_VVA_Color,1001,
#2c7bb6,b,,,,,,,,,0,26,26,46,,,,,,,,,,,0,4,,,a,1.29932657933,2018_Jul_20_1125,60.0384458784,Arrows_VVA_Color,1001,
#fdae61,o,,,,,,,,,0,27,27,24,,,,,,,,,,,0,6,,,a,1.59957152043,2018_Jul_20_1125,60.0384458784,Arrows_VVA_Color,1001,
#d7191c,r,,,,,,,,,0,28,28,17,,,,,,,,,,,0,999,,,a,1.25011434898,2018_Jul_20_1125,60.0384458784,Arrows_VVA_Color,1001,
#fdae61,o,,,,,,,,,0,29,29,30,,,,,,,,,,,0,4,,,a,1.44961215057,2018_Jul_20_1125,60.0384458784,Arrows_VVA_Color,1001,
#2c7bb6,b,,,,,,,,,0,30,30,56,,,,,,,,,,,0,6,,,a,1.46629438359,2018_Jul_20_1125,60.0384458784,Arrows_VVA_Color,1001,
#fdae61,o,,,,,,,,,0,31,31,21,,,,,,,,,,,0,3,,,a,1.66611794032,2018_Jul_20_1125,60.0384458784,Arrows_VVA_Color,1001,
#2c7bb6,b,,,,,,,,,0,32,32,48,,,,,,,,,,,0,5,,,a,2.08265344964,2018_Jul_20_1125,60.0384458784,Arrows_VVA_Color,1001,
#fdae61,o,,,,,,,,,0,33,33,32,,,,,,,,,,,0,999,,,a,1.66654276071,2018_Jul_20_1125,60.0384458784,Arrows_VVA_Color,1001,
#2c7bb6,b,,,,,,,,,0,34,34,49,,,,,,,,,,,0,6,,,a,1.44959920962,2018_Jul_20_1125,60.0384458784,Arrows_VVA_Color,1001,
#fdae61,o,,,,,,,,,0,35,35,28,,,,,,,,,,,0,5,,,a,1.59984149558,2018_Jul_20_1125,60.0384458784,Arrows_VVA_Color,1001,
#d7191c,r,,,,,,,,,0,36,36,11,,,,,,,,,,,0,4,,,a,1.48286818029,2018_Jul_20_1125,60.0384458784,Arrows_VVA_Color,1001,
#d7191c,r,,,,,,,,,0,37,37,1,,,,,,,,,,,0,5,,,f,1.53313755301,2018_Jul_20_1125,60.0384458784,Arrows_VVA_Color,1001,
#fdae61,o,,,,,,,,,0,38,38,33,,,,,,,,,,,0,3,,,a,2.09932006424,2018_Jul_20_1125,60.0384458784,Arrows_VVA_Color,1001,
#2c7bb6,b,,,,,,,,,0,39,39,47,,,,,,,,,,,0,5,,,a,1.64960170857,2018_Jul_20_1125,60.0384458784,Arrows_VVA_Color,1001,
#fdae61,o,,,,,,,,,0,40,40,36,,,,,,,,,,,0,4,,,a,2.01611149215,2018_Jul_20_1125,60.0384458784,Arrows_VVA_Color,1001,
#2c7bb6,b,,,,,,,,,0,41,41,55,,,,,,,,,,,0,999,,,a,1.81622501559,2018_Jul_20_1125,60.0384458784,Arrows_VVA_Color,1001,
#2c7bb6,b,,,,,,,,,0,42,42,45,,,,,,,,,,,0,4,,,f,1.09970472305,2018_Jul_20_1125,60.0384458784,Arrows_VVA_Color,1001,
#fdae61,o,,,,,,,,,0,43,43,34,,,,,,,,,,,0,3,,,a,1.5331620962,2018_Jul_20_1125,60.0384458784,Arrows_VVA_Color,1001,
#fdae61,o,,,,,,,,,0,44,44,29,,,,,,,,,,,0,4,,,f,1.04974682578,2018_Jul_20_1125,60.0384458784,Arrows_VVA_Color,1001,
#fdae61,o,,,,,,,,,0,45,45,39,,,,,,,,,,,0,3,,,f,1.10008938186,2018_Jul_20_1125,60.0384458784,Arrows_VVA_Color,1001,
#2c7bb6,b,,,,,,,,,0,46,46,43,,,,,,,,,,,0,999,,,a,1.08368649504,2018_Jul_20_1125,60.0384458784,Arrows_VVA_Color,1001,
#2c7bb6,b,,,,,,,,,0,47,47,53,,,,,,,,,,,0,6,,,f,1.26645967085,2018_Jul_20_1125,60.0384458784,Arrows_VVA_Color,1001,
#d7191c,r,,,,,,,,,0,48,48,0,,,,,,,,,,,0,5,,,a,1.24969399098,2018_Jul_20_1125,60.0384458784,Arrows_VVA_Color,1001,
#d7191c,r,,,,,,,,,0,49,49,15,,,,,,,,,,,0,3,,,f,1.33318190926,2018_Jul_20_1125,60.0384458784,Arrows_VVA_Color,1001,
#2c7bb6,b,,,,,,,,,0,50,50,60,,,,,,,,,,,0,999,,,a,1.28327265214,2018_Jul_20_1125,60.0384458784,Arrows_VVA_Color,1001,
#d7191c,r,,,,,,,,,0,51,51,4,,,,,,,,,,,0,3,,,a,1.36655842375,2018_Jul_20_1125,60.0384458784,Arrows_VVA_Color,1001,
#d7191c,r,,,,,,,,,0,52,52,20,,,,,,,,,,,0,6,,,f,1.33330998011,2018_Jul_20_1125,60.0384458784,Arrows_VVA_Color,1001,
#d7191c,r,,,,,,,,,0,53,53,13,,,,,,,,,,,0,999,,,f,1.08373424271,2018_Jul_20_1125,60.0384458784,Arrows_VVA_Color,1001,
#d7191c,r,,,,,,,,,0,54,54,14,,,,,,,,,,,0,5,,,f,1.08344954165,2018_Jul_20_1125,60.0384458784,Arrows_VVA_Color,1001,
#d7191c,r,,,,,,,,,0,55,55,10,,,,,,,,,,,0,4,,,f,1.21637191776,2018_Jul_20_1125,60.0384458784,Arrows_VVA_Color,1001,
#d7191c,r,,,,,,,,,0,56,56,12,,,,,,,,,,,0,999,,,f,1.14978444381,2018_Jul_20_1125,60.0384458784,Arrows_VVA_Color,1001,
#fdae61,o,,,,,,,,,0,57,57,22,,,,,,,,,,,0,5,,,a,1.38355123972,2018_Jul_20_1125,60.0384458784,Arrows_VVA_Color,1001,
#2c7bb6,b,,,,,,,,,0,58,58,50,,,,,,,,,,,0,4,,,a,1.84931950644,2018_Jul_20_1125,60.0384458784,Arrows_VVA_Color,1001,
#2c7bb6,b,,,,,,,,,0,59,59,62,,,,,,,,,,,0,6,,,f,1.4995124829,2018_Jul_20_1125,60.0384458784,Arrows_VVA_Color,1001,
#2c7bb6,b,,,,,,,,,0,60,60,51,,,,,,,,,,,0,3,,,f,1.23312733413,2018_Jul_20_1125,60.0384458784,Arrows_VVA_Color,1001,
#2c7bb6,b,,,,,,,,,0,61,61,61,,,,,,,,,,,0,4,,,f,1.29941270364,2018_Jul_20_1125,60.0384458784,Arrows_VVA_Color,1001,
#d7191c,r,,,,,,,,,0,62,62,6,,,,,,,,,,,0,3,,,a,1.05028945353,2018_Jul_20_1125,60.0384458784,Arrows_VVA_Color,1001,
