color,answer,repeat_color_practice.thisRepN,repeat_color_practice.thisTrialN,repeat_color_practice.thisN,repeat_color_practice.thisIndex,repeat_color_practice_mini.thisRepN,repeat_color_practice_mini.thisTrialN,repeat_color_practice_mini.thisN,repeat_color_practice_mini.thisIndex,trials_3.thisRepN,trials_3.thisTrialN,trials_3.thisN,trials_3.thisIndex,trials_2.thisRepN,trials_2.thisTrialN,trials_2.thisN,trials_2.thisIndex,key_resp_7.keys,key_resp_7.rt,key_resp_8.keys,key_resp_8.rt,key_resp_9.keys,key_resp_9.rt,key_resp_6.keys,key_resp_6.rt,key_resp_2.keys,key_resp_11.keys,key_resp_11.rt,colorpractice_numVertices,colorpractice_correct,key_resp_2.rt,key_resp_13.keys,key_resp_13.rt,color_response.keys,color_response.rt,date,frameRate,expName,participant,
,,,,,,,,,,,,,,,,,,d,165.981056139,,,,,,,,,,,,,,,,,2018_Dec_19_1152,60.082444762,Arrows_VVA_Color,1004,
,,,,,,,,,,,,,,,,,,,,d,13.4113841665,,,,,,,,,,,,,,,2018_Dec_19_1152,60.082444762,Arrows_VVA_Color,1004,
,,,,,,,,,,,,,,,,,,,,,,d,31.6686810026,,,,,,,,,,,,,2018_Dec_19_1152,60.082444762,Arrows_VVA_Color,1004,
#d7191c,r,0,0,0,0,0,0,0,0,0,0,0,0,,,,,,,,,,,d,32.4011585332,None,f,11.3782087582,3,,,,,,,2018_Dec_19_1152,60.082444762,Arrows_VVA_Color,1004,
#d7191c,r,0,0,0,0,0,0,0,0,0,1,1,1,,,,,,,,,,,,,,f,6.414432445,999,0,,,,,,2018_Dec_19_1152,60.082444762,Arrows_VVA_Color,1004,
#fdae61,o,0,0,0,0,0,0,0,0,0,2,2,2,,,,,,,,,,,,,,f,5.43084656106,5,,,,,,,2018_Dec_19_1152,60.082444762,Arrows_VVA_Color,1004,
#2c7bb6,b,0,0,0,0,0,0,0,0,0,3,3,3,,,,,,,,,,,,,,a,2.54912342471,999,0,,,,,,2018_Dec_19_1152,60.082444762,Arrows_VVA_Color,1004,
#2c7bb6,b,0,0,0,0,0,0,0,0,0,4,4,4,,,,,,,,,,,,,,f,1.63304189274,4,,,,,,,2018_Dec_19_1152,60.082444762,Arrows_VVA_Color,1004,
#2c7bb6,b,0,0,0,0,0,0,0,0,0,5,5,5,,,,,,,,,,,,,,f,2.04967564907,6,0,,,,,,2018_Dec_19_1152,60.082444762,Arrows_VVA_Color,1004,
#fdae61,o,0,0,0,0,0,0,0,0,0,6,6,6,,,,,,,,,,,,,,f,1.54965132889,5,,,,,,,2018_Dec_19_1152,60.082444762,Arrows_VVA_Color,1004,
#fdae61,o,0,0,0,0,0,0,0,0,0,7,7,7,,,,,,,,,,,,,,f,1.6998911616,3,0,,,,,,2018_Dec_19_1152,60.082444762,Arrows_VVA_Color,1004,
#d7191c,r,0,0,0,0,1,0,1,0,0,0,0,0,,,,,,,,,,,,,d,f,3.78308493278,999,,11.7943025618,,,,,2018_Dec_19_1152,60.082444762,Arrows_VVA_Color,1004,
#2c7bb6,b,0,0,0,0,1,0,1,0,0,1,1,1,,,,,,,,,,,,,,a,1.71676624555,4,0,,,,,,2018_Dec_19_1152,60.082444762,Arrows_VVA_Color,1004,
#d7191c,r,0,0,0,0,1,0,1,0,0,2,2,2,,,,,,,,,,,,,,f,2.56656077346,999,,,,,,,2018_Dec_19_1152,60.082444762,Arrows_VVA_Color,1004,
#fdae61,o,0,0,0,0,1,0,1,0,0,3,3,3,,,,,,,,,,,,,,a,1.68357878869,4,0,,,,,,2018_Dec_19_1152,60.082444762,Arrows_VVA_Color,1004,
#2c7bb6,b,0,0,0,0,1,0,1,0,0,4,4,4,,,,,,,,,,,,,,f,1.48339779298,5,,,,,,,2018_Dec_19_1152,60.082444762,Arrows_VVA_Color,1004,
#2c7bb6,b,0,0,0,0,1,0,1,0,0,5,5,5,,,,,,,,,,,,,,f,1.73312859755,6,0,,,,,,2018_Dec_19_1152,60.082444762,Arrows_VVA_Color,1004,
#fdae61,o,0,0,0,0,1,0,1,0,0,6,6,6,,,,,,,,,,,,,,f,2.19962765575,999,,,,,,,2018_Dec_19_1152,60.082444762,Arrows_VVA_Color,1004,
#d7191c,r,0,0,0,0,1,0,1,0,0,7,7,7,,,,,,,,,,,,,,a,1.61683840286,4,0,,,,,,2018_Dec_19_1152,60.082444762,Arrows_VVA_Color,1004,
#fdae61,o,0,0,0,0,2,0,2,0,0,0,0,0,,,,,,,,,,,,,d,f,3.11620987114,5,,3.84803142614,,,,,2018_Dec_19_1152,60.082444762,Arrows_VVA_Color,1004,
#fdae61,o,0,0,0,0,2,0,2,0,0,1,1,1,,,,,,,,,,,,,,f,1.86694271191,3,0,,,,,,2018_Dec_19_1152,60.082444762,Arrows_VVA_Color,1004,
#d7191c,r,0,0,0,0,2,0,2,0,0,2,2,2,,,,,,,,,,,,,,f,2.08313531349,999,,,,,,,2018_Dec_19_1152,60.082444762,Arrows_VVA_Color,1004,
#2c7bb6,b,0,0,0,0,2,0,2,0,0,3,3,3,,,,,,,,,,,,,,a,3.21608550352,3,0,,,,,,2018_Dec_19_1152,60.082444762,Arrows_VVA_Color,1004,
#fdae61,o,0,0,0,0,2,0,2,0,0,4,4,4,,,,,,,,,,,,,,f,1.74902328803,6,,,,,,,2018_Dec_19_1152,60.082444762,Arrows_VVA_Color,1004,
#2c7bb6,b,0,0,0,0,2,0,2,0,0,5,5,5,,,,,,,,,,,,,,a,1.76687341054,4,0,,,,,,2018_Dec_19_1152,60.082444762,Arrows_VVA_Color,1004,
#d7191c,r,0,0,0,0,2,0,2,0,0,6,6,6,,,,,,,,,,,,,,f,1.73400814034,999,,,,,,,2018_Dec_19_1152,60.082444762,Arrows_VVA_Color,1004,
#d7191c,r,0,0,0,0,2,0,2,0,0,7,7,7,,,,,,,,,,,,,,f,1.86651298095,3,0,,,,,,2018_Dec_19_1152,60.082444762,Arrows_VVA_Color,1004,
#2c7bb6,b,1,0,1,0,0,0,0,0,0,0,0,0,,,,,,,,,,,d,9.079371263,None,f,2.53274723921,999,,,,,,,2018_Dec_19_1152,60.082444762,Arrows_VVA_Color,1004,
#2c7bb6,b,1,0,1,0,0,0,0,0,0,1,1,1,,,,,,,,,,,,,,f,1.83308232226,6,0,,,,,,2018_Dec_19_1152,60.082444762,Arrows_VVA_Color,1004,
#d7191c,r,1,0,1,0,0,0,0,0,0,2,2,2,,,,,,,,,,,,,,f,1.89956076409,999,,,,,,,2018_Dec_19_1152,60.082444762,Arrows_VVA_Color,1004,
#fdae61,o,1,0,1,0,0,0,0,0,0,3,3,3,,,,,,,,,,,,,,a,1.63375007865,5,0,,,,,,2018_Dec_19_1152,60.082444762,Arrows_VVA_Color,1004,
#d7191c,r,1,0,1,0,0,0,0,0,0,4,4,4,,,,,,,,,,,,,,f,2.11589571684,6,,,,,,,2018_Dec_19_1152,60.082444762,Arrows_VVA_Color,1004,
#d7191c,r,1,0,1,0,0,0,0,0,0,5,5,5,,,,,,,,,,,,,,f,2.68282419363,4,0,,,,,,2018_Dec_19_1152,60.082444762,Arrows_VVA_Color,1004,
#fdae61,o,1,0,1,0,0,0,0,0,0,6,6,6,,,,,,,,,,,,,,f,3.48188057049,3,,,,,,,2018_Dec_19_1152,60.082444762,Arrows_VVA_Color,1004,
#fdae61,o,1,0,1,0,0,0,0,0,0,7,7,7,,,,,,,,,,,,,,f,9.96252594339,4,0,,,,,,2018_Dec_19_1152,60.082444762,Arrows_VVA_Color,1004,
#fdae61,o,1,0,1,0,1,0,1,0,0,0,0,0,,,,,,,,,,,,,d,f,7.39738243422,999,,4.61453356342,,,,,2018_Dec_19_1152,60.082444762,Arrows_VVA_Color,1004,
#2c7bb6,b,1,0,1,0,1,0,1,0,0,1,1,1,,,,,,,,,,,,,,a,1.81633798719,6,0,,,,,,2018_Dec_19_1152,60.082444762,Arrows_VVA_Color,1004,
#d7191c,o,1,0,1,0,1,0,1,0,0,2,2,2,,,,,,,,,,,,,,f,2.91554425671,3,,,,,,,2018_Dec_19_1152,60.082444762,Arrows_VVA_Color,1004,
#d7191c,o,1,0,1,0,1,0,1,0,0,3,3,3,,,,,,,,,,,,,,f,2.43298852221,5,0,,,,,,2018_Dec_19_1152,60.082444762,Arrows_VVA_Color,1004,
#fdae61,r,1,0,1,0,1,0,1,0,0,4,4,4,,,,,,,,,,,,,,f,2.68265506795,6,,,,,,,2018_Dec_19_1152,60.082444762,Arrows_VVA_Color,1004,
#2c7bb6,b,1,0,1,0,1,0,1,0,0,5,5,5,,,,,,,,,,,,,,a,1.53330727281,5,0,,,,,,2018_Dec_19_1152,60.082444762,Arrows_VVA_Color,1004,
#2c7bb6,b,1,0,1,0,1,0,1,0,0,6,6,6,,,,,,,,,,,,,,f,2.26596508514,3,,,,,,,2018_Dec_19_1152,60.082444762,Arrows_VVA_Color,1004,
#fdae61,r,1,0,1,0,1,0,1,0,0,7,7,7,,,,,,,,,,,,,,a,3.11582342565,5,0,,,,,,2018_Dec_19_1152,60.082444762,Arrows_VVA_Color,1004,
#d7191c,r,1,0,1,0,2,0,2,0,0,0,0,0,,,,,,,,,,,,,d,f,3.0990527623,5,,4.41515848058,,,,,2018_Dec_19_1152,60.082444762,Arrows_VVA_Color,1004,
#fdae61,o,1,0,1,0,2,0,2,0,0,1,1,1,,,,,,,,,,,,,,a,2.53285344479,4,0,,,,,,2018_Dec_19_1152,60.082444762,Arrows_VVA_Color,1004,
#2c7bb6,b,1,0,1,0,2,0,2,0,0,2,2,2,,,,,,,,,,,,,,f,1.94931941416,5,,,,,,,2018_Dec_19_1152,60.082444762,Arrows_VVA_Color,1004,
#fdae61,o,1,0,1,0,2,0,2,0,0,3,3,3,,,,,,,,,,,,,,a,1.68358726729,4,0,,,,,,2018_Dec_19_1152,60.082444762,Arrows_VVA_Color,1004,
#d7191c,r,1,0,1,0,2,0,2,0,0,4,4,4,,,,,,,,,,,,,,f,2.0334659118,999,,,,,,,2018_Dec_19_1152,60.082444762,Arrows_VVA_Color,1004,
#d7191c,r,1,0,1,0,2,0,2,0,0,5,5,5,,,,,,,,,,,,,,f,1.79988237063,6,0,,,,,,2018_Dec_19_1152,60.082444762,Arrows_VVA_Color,1004,
#2c7bb6,b,1,0,1,0,2,0,2,0,0,6,6,6,,,,,,,,,,,,,,f,2.86617071341,999,,,,,,,2018_Dec_19_1152,60.082444762,Arrows_VVA_Color,1004,
#2c7bb6,b,1,0,1,0,2,0,2,0,0,7,7,7,,,,,,,,,,,,,,f,2.13333083438,6,0,,,,,,2018_Dec_19_1152,60.082444762,Arrows_VVA_Color,1004,
,,,,,,,,,,,,,,,,,,,,,,,,,,,,,,,,d,41.7291289313,,,2018_Dec_19_1152,60.082444762,Arrows_VVA_Color,1004,
#2c7bb6,b,,,,,,,,,,,,,0,0,0,0,,,,,,,,,,,,6,,,,,f,5.26486643757,2018_Dec_19_1152,60.082444762,Arrows_VVA_Color,1004,
#d7191c,r,,,,,,,,,,,,,0,1,1,1,,,,,,,,,,,,5,0,,,,a,1.78316838001,2018_Dec_19_1152,60.082444762,Arrows_VVA_Color,1004,
#fdae61,o,,,,,,,,,,,,,0,2,2,2,,,,,,,,,,,,4,,,,,f,2.08271450737,2018_Dec_19_1152,60.082444762,Arrows_VVA_Color,1004,
#2c7bb6,b,,,,,,,,,,,,,0,3,3,3,,,,,,,,,,,,6,0,,,,a,2.48268469841,2018_Dec_19_1152,60.082444762,Arrows_VVA_Color,1004,
#2c7bb6,b,,,,,,,,,,,,,0,4,4,4,,,,,,,,,,,,4,,,,,f,2.0990059069,2018_Dec_19_1152,60.082444762,Arrows_VVA_Color,1004,
#d7191c,r,,,,,,,,,,,,,0,5,5,5,,,,,,,,,,,,5,0,,,,a,3.03239850116,2018_Dec_19_1152,60.082444762,Arrows_VVA_Color,1004,
#2c7bb6,b,,,,,,,,,,,,,0,6,6,6,,,,,,,,,,,,3,,,,,f,2.71573542674,2018_Dec_19_1152,60.082444762,Arrows_VVA_Color,1004,
#2c7bb6,b,,,,,,,,,,,,,0,7,7,7,,,,,,,,,,,,6,0,,,,f,9.89534467056,2018_Dec_19_1152,60.082444762,Arrows_VVA_Color,1004,
#fdae61,o,,,,,,,,,,,,,0,8,8,8,,,,,,,,,,,,5,,,,,f,3.41565291661,2018_Dec_19_1152,60.082444762,Arrows_VVA_Color,1004,
#fdae61,o,,,,,,,,,,,,,0,9,9,9,,,,,,,,,,,,3,0,,,,f,1.71666628736,2018_Dec_19_1152,60.082444762,Arrows_VVA_Color,1004,
#d7191c,r,,,,,,,,,,,,,0,10,10,10,,,,,,,,,,,,6,,,,,f,3.44980961089,2018_Dec_19_1152,60.082444762,Arrows_VVA_Color,1004,
#2c7bb6,b,,,,,,,,,,,,,0,11,11,11,,,,,,,,,,,,5,0,,,,a,1.66735566417,2018_Dec_19_1152,60.082444762,Arrows_VVA_Color,1004,
#fdae61,o,,,,,,,,,,,,,0,12,12,12,,,,,,,,,,,,999,,,,,f,2.66697814352,2018_Dec_19_1152,60.082444762,Arrows_VVA_Color,1004,
#d7191c,r,,,,,,,,,,,,,0,13,13,13,,,,,,,,,,,,6,0,,,,a,2.26662820061,2018_Dec_19_1152,60.082444762,Arrows_VVA_Color,1004,
#d7191c,r,,,,,,,,,,,,,0,14,14,14,,,,,,,,,,,,3,,,,,f,2.16622109412,2018_Dec_19_1152,60.082444762,Arrows_VVA_Color,1004,
#d7191c,r,,,,,,,,,,,,,0,15,15,15,,,,,,,,,,,,4,0,,,,f,1.95007445546,2018_Dec_19_1152,60.082444762,Arrows_VVA_Color,1004,
#fdae61,o,,,,,,,,,,,,,0,16,16,16,,,,,,,,,,,,5,,,,,f,1.63405263066,2018_Dec_19_1152,60.082444762,Arrows_VVA_Color,1004,
#d7191c,r,,,,,,,,,,,,,0,17,17,17,,,,,,,,,,,,999,0,,,,a,1.93356796733,2018_Dec_19_1152,60.082444762,Arrows_VVA_Color,1004,
#2c7bb6,b,,,,,,,,,,,,,0,18,18,18,,,,,,,,,,,,3,,,,,f,1.88446752408,2018_Dec_19_1152,60.082444762,Arrows_VVA_Color,1004,
#fdae61,o,,,,,,,,,,,,,0,19,19,19,,,,,,,,,,,,5,0,,,,a,1.66756405914,2018_Dec_19_1152,60.082444762,Arrows_VVA_Color,1004,
#2c7bb6,b,,,,,,,,,,,,,0,20,20,20,,,,,,,,,,,,4,,,,,f,3.68261178248,2018_Dec_19_1152,60.082444762,Arrows_VVA_Color,1004,
#2c7bb6,b,,,,,,,,,,,,,0,21,21,21,,,,,,,,,,,,3,0,,,,f,2.86674547299,2018_Dec_19_1152,60.082444762,Arrows_VVA_Color,1004,
#d7191c,r,,,,,,,,,,,,,0,22,22,22,,,,,,,,,,,,999,,,,,f,1.93353717664,2018_Dec_19_1152,60.082444762,Arrows_VVA_Color,1004,
#d7191c,r,,,,,,,,,,,,,0,23,23,23,,,,,,,,,,,,5,0,,,,f,1.75056371509,2018_Dec_19_1152,60.082444762,Arrows_VVA_Color,1004,
#d7191c,r,,,,,,,,,,,,,0,24,24,24,,,,,,,,,,,,4,,,,,f,2.9003733706,2018_Dec_19_1152,60.082444762,Arrows_VVA_Color,1004,
#fdae61,o,,,,,,,,,,,,,0,25,25,25,,,,,,,,,,,,5,0,,,,a,1.5006080046,2018_Dec_19_1152,60.082444762,Arrows_VVA_Color,1004,
#2c7bb6,b,,,,,,,,,,,,,0,26,26,26,,,,,,,,,,,,4,,,,,f,2.11658159065,2018_Dec_19_1152,60.082444762,Arrows_VVA_Color,1004,
#2c7bb6,b,,,,,,,,,,,,,0,27,27,27,,,,,,,,,,,,3,0,,,,f,1.60026854838,2018_Dec_19_1152,60.082444762,Arrows_VVA_Color,1004,
#d7191c,r,,,,,,,,,,,,,0,28,28,28,,,,,,,,,,,,5,,,,,f,2.33370505284,2018_Dec_19_1152,60.082444762,Arrows_VVA_Color,1004,
#d7191c,r,,,,,,,,,,,,,0,29,29,29,,,,,,,,,,,,4,0,,,,f,1.55049070991,2018_Dec_19_1152,60.082444762,Arrows_VVA_Color,1004,
#fdae61,o,,,,,,,,,,,,,0,30,30,30,,,,,,,,,,,,6,,,,,f,1.29998567563,2018_Dec_19_1152,60.082444762,Arrows_VVA_Color,1004,
#d7191c,r,,,,,,,,,,,,,0,31,31,31,,,,,,,,,,,,999,0,,,,a,1.70051009912,2018_Dec_19_1152,60.082444762,Arrows_VVA_Color,1004,
#2c7bb6,b,,,,,,,,,,,,,0,32,32,32,,,,,,,,,,,,6,,,,,f,1.66695583142,2018_Dec_19_1152,60.082444762,Arrows_VVA_Color,1004,
#d7191c,r,,,,,,,,,,,,,0,33,33,33,,,,,,,,,,,,5,0,,,,a,1.83354953754,2018_Dec_19_1152,60.082444762,Arrows_VVA_Color,1004,
#fdae61,o,,,,,,,,,,,,,0,34,34,34,,,,,,,,,,,,999,,,,,f,1.7840787135,2018_Dec_19_1152,60.082444762,Arrows_VVA_Color,1004,
#fdae61,o,,,,,,,,,,,,,0,35,35,35,,,,,,,,,,,,5,0,,,,f,2.34973406214,2018_Dec_19_1152,60.082444762,Arrows_VVA_Color,1004,
#fdae61,o,,,,,,,,,,,,,0,36,36,36,,,,,,,,,,,,4,,,,,f,1.81772758449,2018_Dec_19_1152,60.082444762,Arrows_VVA_Color,1004,
#d7191c,r,,,,,,,,,,,,,0,37,37,37,,,,,,,,,,,,999,0,,,,a,1.86723321539,2018_Dec_19_1152,60.082444762,Arrows_VVA_Color,1004,
#d7191c,r,,,,,,,,,,,,,0,38,38,38,,,,,,,,,,,,4,,,,,f,2.31673893554,2018_Dec_19_1152,60.082444762,Arrows_VVA_Color,1004,
#d7191c,r,,,,,,,,,,,,,0,39,39,39,,,,,,,,,,,,999,0,,,,f,1.60061260089,2018_Dec_19_1152,60.082444762,Arrows_VVA_Color,1004,
#2c7bb6,b,,,,,,,,,,,,,0,40,40,40,,,,,,,,,,,,6,,,,,f,5.39848554422,2018_Dec_19_1152,60.082444762,Arrows_VVA_Color,1004,
#2c7bb6,b,,,,,,,,,,,,,0,41,41,41,,,,,,,,,,,,999,0,,,,f,2.55032917034,2018_Dec_19_1152,60.082444762,Arrows_VVA_Color,1004,
#fdae61,o,,,,,,,,,,,,,0,42,42,42,,,,,,,,,,,,3,,,,,f,1.63356935068,2018_Dec_19_1152,60.082444762,Arrows_VVA_Color,1004,
#d7191c,r,,,,,,,,,,,,,0,43,43,43,,,,,,,,,,,,6,0,,,,a,1.45064363701,2018_Dec_19_1152,60.082444762,Arrows_VVA_Color,1004,
#fdae61,o,,,,,,,,,,,,,0,44,44,44,,,,,,,,,,,,5,,,,,f,2.03342084137,2018_Dec_19_1152,60.082444762,Arrows_VVA_Color,1004,
#2c7bb6,b,,,,,,,,,,,,,0,45,45,45,,,,,,,,,,,,999,0,,,,a,1.4664606814,2018_Dec_19_1152,60.082444762,Arrows_VVA_Color,1004,
#d7191c,r,,,,,,,,,,,,,0,46,46,46,,,,,,,,,,,,3,,,,,f,2.63179910903,2018_Dec_19_1152,60.082444762,Arrows_VVA_Color,1004,
#d7191c,r,,,,,,,,,,,,,0,47,47,47,,,,,,,,,,,,6,0,,,,f,1.81728178882,2018_Dec_19_1152,60.082444762,Arrows_VVA_Color,1004,
#fdae61,o,,,,,,,,,,,,,0,48,48,48,,,,,,,,,,,,4,,,,,f,2.03447397227,2018_Dec_19_1152,60.082444762,Arrows_VVA_Color,1004,
#fdae61,o,,,,,,,,,,,,,0,49,49,49,,,,,,,,,,,,6,0,,,,f,1.3171133325,2018_Dec_19_1152,60.082444762,Arrows_VVA_Color,1004,
#d7191c,r,,,,,,,,,,,,,0,50,50,50,,,,,,,,,,,,4,,,,,f,1.96742210959,2018_Dec_19_1152,60.082444762,Arrows_VVA_Color,1004,
#fdae61,o,,,,,,,,,,,,,0,51,51,51,,,,,,,,,,,,999,0,,,,a,1.71681086974,2018_Dec_19_1152,60.082444762,Arrows_VVA_Color,1004,
#2c7bb6,b,,,,,,,,,,,,,0,52,52,52,,,,,,,,,,,,5,,,,,f,2.36706074289,2018_Dec_19_1152,60.082444762,Arrows_VVA_Color,1004,
#2c7bb6,b,,,,,,,,,,,,,0,53,53,53,,,,,,,,,,,,6,0,,,,f,1.58352421331,2018_Dec_19_1152,60.082444762,Arrows_VVA_Color,1004,
#fdae61,o,,,,,,,,,,,,,0,54,54,54,,,,,,,,,,,,3,,,,,f,1.46746740314,2018_Dec_19_1152,60.082444762,Arrows_VVA_Color,1004,
#d7191c,r,,,,,,,,,,,,,0,55,55,55,,,,,,,,,,,,999,0,,,,a,1.50082621689,2018_Dec_19_1152,60.082444762,Arrows_VVA_Color,1004,
#fdae61,o,,,,,,,,,,,,,0,56,56,56,,,,,,,,,,,,5,,,,,f,2.59978839209,2018_Dec_19_1152,60.082444762,Arrows_VVA_Color,1004,
#2c7bb6,b,,,,,,,,,,,,,0,57,57,57,,,,,,,,,,,,999,0,,,,a,2.66704686477,2018_Dec_19_1152,60.082444762,Arrows_VVA_Color,1004,
#d7191c,r,,,,,,,,,,,,,0,58,58,58,,,,,,,,,,,,5,,,,,f,2.96663538511,2018_Dec_19_1152,60.082444762,Arrows_VVA_Color,1004,
#d7191c,r,,,,,,,,,,,,,0,59,59,59,,,,,,,,,,,,3,0,,,,f,2.85016981736,2018_Dec_19_1152,60.082444762,Arrows_VVA_Color,1004,
#fdae61,o,,,,,,,,,,,,,0,60,60,60,,,,,,,,,,,,5,,,,,f,5.14888013362,2018_Dec_19_1152,60.082444762,Arrows_VVA_Color,1004,
#2c7bb6,b,,,,,,,,,,,,,0,61,61,61,,,,,,,,,,,,999,0,,,,a,1.66724098,2018_Dec_19_1152,60.082444762,Arrows_VVA_Color,1004,
#d7191c,r,,,,,,,,,,,,,0,62,62,62,,,,,,,,,,,,4,,,,,f,3.38277916782,2018_Dec_19_1152,60.082444762,Arrows_VVA_Color,1004,
#d7191c,r,,,,,,,,,,,,,0,63,63,63,,,,,,,,,,,,999,0,,,,f,1.85043399257,2018_Dec_19_1152,60.082444762,Arrows_VVA_Color,1004,
#fdae61,o,,,,,,,,,,,,,0,64,64,64,,,,,,,,,,,,4,,,,,f,2.28297047173,2018_Dec_19_1152,60.082444762,Arrows_VVA_Color,1004,
#fdae61,o,,,,,,,,,,,,,0,65,65,65,,,,,,,,,,,,6,0,,,,f,2.08350167809,2018_Dec_19_1152,60.082444762,Arrows_VVA_Color,1004,
#d7191c,r,,,,,,,,,,,,,0,66,66,66,,,,,,,,,,,,999,,,,,f,1.91719981418,2018_Dec_19_1152,60.082444762,Arrows_VVA_Color,1004,
#fdae61,o,,,,,,,,,,,,,0,67,67,67,,,,,,,,,,,,4,0,,,,a,1.65062560884,2018_Dec_19_1152,60.082444762,Arrows_VVA_Color,1004,
#d7191c,r,,,,,,,,,,,,,0,68,68,68,,,,,,,,,,,,999,,,,,f,2.21766296866,2018_Dec_19_1152,60.082444762,Arrows_VVA_Color,1004,
#fdae61,o,,,,,,,,,,,,,0,69,69,69,,,,,,,,,,,,3,0,,,,a,2.53350674294,2018_Dec_19_1152,60.082444762,Arrows_VVA_Color,1004,
#fdae61,o,,,,,,,,,,,,,0,70,70,70,,,,,,,,,,,,6,,,,,f,2.08428572512,2018_Dec_19_1152,60.082444762,Arrows_VVA_Color,1004,
#fdae61,o,,,,,,,,,,,,,0,71,71,71,,,,,,,,,,,,3,0,,,,f,2.43267347543,2018_Dec_19_1152,60.082444762,Arrows_VVA_Color,1004,
#2c7bb6,b,,,,,,,,,,,,,0,72,72,72,,,,,,,,,,,,4,,,,,f,2.88352684614,2018_Dec_19_1152,60.082444762,Arrows_VVA_Color,1004,
#2c7bb6,b,,,,,,,,,,,,,0,73,73,73,,,,,,,,,,,,3,0,,,,f,1.76744683139,2018_Dec_19_1152,60.082444762,Arrows_VVA_Color,1004,
#2c7bb6,b,,,,,,,,,,,,,0,74,74,74,,,,,,,,,,,,5,,,,,f,2.11655481613,2018_Dec_19_1152,60.082444762,Arrows_VVA_Color,1004,
#fdae61,o,,,,,,,,,,,,,0,75,75,75,,,,,,,,,,,,999,0,,,,a,1.43412822404,2018_Dec_19_1152,60.082444762,Arrows_VVA_Color,1004,
#2c7bb6,b,,,,,,,,,,,,,0,76,76,76,,,,,,,,,,,,6,,,,,f,1.65021194259,2018_Dec_19_1152,60.082444762,Arrows_VVA_Color,1004,
#2c7bb6,b,,,,,,,,,,,,,0,77,77,77,,,,,,,,,,,,4,0,,,,f,1.71732449417,2018_Dec_19_1152,60.082444762,Arrows_VVA_Color,1004,
#d7191c,r,,,,,,,,,,,,,0,78,78,78,,,,,,,,,,,,999,,,,,f,1.56767950192,2018_Dec_19_1152,60.082444762,Arrows_VVA_Color,1004,
#d7191c,r,,,,,,,,,,,,,0,79,79,79,,,,,,,,,,,,5,0,,,,f,1.60012976715,2018_Dec_19_1152,60.082444762,Arrows_VVA_Color,1004,
#d7191c,r,,,,,,,,,,,,,0,80,80,80,,,,,,,,,,,,4,,,,,f,2.7500558918,2018_Dec_19_1152,60.082444762,Arrows_VVA_Color,1004,
#fdae61,o,,,,,,,,,,,,,0,81,81,81,,,,,,,,,,,,6,0,,,,a,1.53416316478,2018_Dec_19_1152,60.082444762,Arrows_VVA_Color,1004,
#d7191c,r,,,,,,,,,,,,,0,82,82,82,,,,,,,,,,,,999,,,,,f,1.95054479443,2018_Dec_19_1152,60.082444762,Arrows_VVA_Color,1004,
#2c7bb6,b,,,,,,,,,,,,,0,83,83,83,,,,,,,,,,,,5,0,,,,a,1.55126270841,2018_Dec_19_1152,60.082444762,Arrows_VVA_Color,1004,
#2c7bb6,b,,,,,,,,,,,,,0,84,84,84,,,,,,,,,,,,999,,,,,f,1.76777615792,2018_Dec_19_1152,60.082444762,Arrows_VVA_Color,1004,
#2c7bb6,b,,,,,,,,,,,,,0,85,85,85,,,,,,,,,,,,3,0,,,,f,1.40083768531,2018_Dec_19_1152,60.082444762,Arrows_VVA_Color,1004,
#fdae61,o,,,,,,,,,,,,,0,86,86,86,,,,,,,,,,,,999,,,,,f,1.98392904397,2018_Dec_19_1152,60.082444762,Arrows_VVA_Color,1004,
#fdae61,o,,,,,,,,,,,,,0,87,87,87,,,,,,,,,,,,6,0,,,,f,1.28431946101,2018_Dec_19_1152,60.082444762,Arrows_VVA_Color,1004,
#2c7bb6,b,,,,,,,,,,,,,0,88,88,88,,,,,,,,,,,,999,,,,,f,1.91775404663,2018_Dec_19_1152,60.082444762,Arrows_VVA_Color,1004,
#d7191c,r,,,,,,,,,,,,,0,89,89,89,,,,,,,,,,,,4,0,,,,a,1.33408034229,2018_Dec_19_1152,60.082444762,Arrows_VVA_Color,1004,
#fdae61,o,,,,,,,,,,,,,0,90,90,90,,,,,,,,,,,,999,,,,,f,1.55039699911,2018_Dec_19_1152,60.082444762,Arrows_VVA_Color,1004,
#fdae61,o,,,,,,,,,,,,,0,91,91,91,,,,,,,,,,,,5,0,,,,f,1.75041913271,2018_Dec_19_1152,60.082444762,Arrows_VVA_Color,1004,
#2c7bb6,b,,,,,,,,,,,,,0,92,92,92,,,,,,,,,,,,999,,,,,f,3.06707997592,2018_Dec_19_1152,60.082444762,Arrows_VVA_Color,1004,
#2c7bb6,b,,,,,,,,,,,,,0,93,93,93,,,,,,,,,,,,6,0,,,,f,1.33367604712,2018_Dec_19_1152,60.082444762,Arrows_VVA_Color,1004,
#d7191c,r,,,,,,,,,,,,,0,94,94,94,,,,,,,,,,,,4,,,,,f,1.73378992805,2018_Dec_19_1152,60.082444762,Arrows_VVA_Color,1004,
#fdae61,o,,,,,,,,,,,,,0,95,95,95,,,,,,,,,,,,999,0,,,,a,2.05061275707,2018_Dec_19_1152,60.082444762,Arrows_VVA_Color,1004,
#fdae61,o,,,,,,,,,,,,,0,96,96,96,,,,,,,,,,,,4,,,,,f,1.9342118944,2018_Dec_19_1152,60.082444762,Arrows_VVA_Color,1004,
#fdae61,o,,,,,,,,,,,,,0,97,97,97,,,,,,,,,,,,999,0,,,,f,2.35067474008,2018_Dec_19_1152,60.082444762,Arrows_VVA_Color,1004,
#d7191c,r,,,,,,,,,,,,,0,98,98,98,,,,,,,,,,,,4,,,,,f,1.21735104557,2018_Dec_19_1152,60.082444762,Arrows_VVA_Color,1004,
#fdae61,o,,,,,,,,,,,,,0,99,99,99,,,,,,,,,,,,5,0,,,,a,2.38341773999,2018_Dec_19_1152,60.082444762,Arrows_VVA_Color,1004,
#2c7bb6,b,,,,,,,,,,,,,0,100,100,100,,,,,,,,,,,,4,,,,,f,4.03285456039,2018_Dec_19_1152,60.082444762,Arrows_VVA_Color,1004,
#fdae61,o,,,,,,,,,,,,,0,101,101,101,,,,,,,,,,,,3,0,,,,a,2.08339145634,2018_Dec_19_1152,60.082444762,Arrows_VVA_Color,1004,
#fdae61,o,,,,,,,,,,,,,0,102,102,102,,,,,,,,,,,,5,,,,,f,1.95025786089,2018_Dec_19_1152,60.082444762,Arrows_VVA_Color,1004,
#fdae61,o,,,,,,,,,,,,,0,103,103,103,,,,,,,,,,,,4,0,,,,f,1.65113387837,2018_Dec_19_1152,60.082444762,Arrows_VVA_Color,1004,
#2c7bb6,b,,,,,,,,,,,,,0,104,104,104,,,,,,,,,,,,999,,,,,f,2.96704726639,2018_Dec_19_1152,60.082444762,Arrows_VVA_Color,1004,
#2c7bb6,b,,,,,,,,,,,,,0,105,105,105,,,,,,,,,,,,5,0,,,,f,1.30095312809,2018_Dec_19_1152,60.082444762,Arrows_VVA_Color,1004,
#fdae61,o,,,,,,,,,,,,,0,106,106,106,,,,,,,,,,,,4,,,,,f,1.93387632049,2018_Dec_19_1152,60.082444762,Arrows_VVA_Color,1004,
#d7191c,r,,,,,,,,,,,,,0,107,107,107,,,,,,,,,,,,5,0,,,,a,2.25020337475,2018_Dec_19_1152,60.082444762,Arrows_VVA_Color,1004,
#d7191c,r,,,,,,,,,,,,,0,108,108,108,,,,,,,,,,,,4,,,,,f,1.68301830886,2018_Dec_19_1152,60.082444762,Arrows_VVA_Color,1004,
#2c7bb6,b,,,,,,,,,,,,,0,109,109,109,,,,,,,,,,,,6,0,,,,a,1.58392940096,2018_Dec_19_1152,60.082444762,Arrows_VVA_Color,1004,
#2c7bb6,b,,,,,,,,,,,,,0,110,110,110,,,,,,,,,,,,999,,,,,f,2.40041821792,2018_Dec_19_1152,60.082444762,Arrows_VVA_Color,1004,
#2c7bb6,b,,,,,,,,,,,,,0,111,111,111,,,,,,,,,,,,6,0,,,,f,1.53320909959,2018_Dec_19_1152,60.082444762,Arrows_VVA_Color,1004,
#d7191c,r,,,,,,,,,,,,,0,112,112,112,,,,,,,,,,,,3,,,,,f,1.95047607318,2018_Dec_19_1152,60.082444762,Arrows_VVA_Color,1004,
#fdae61,o,,,,,,,,,,,,,0,113,113,113,,,,,,,,,,,,4,0,,,,a,1.36711027575,2018_Dec_19_1152,60.082444762,Arrows_VVA_Color,1004,
#fdae61,o,,,,,,,,,,,,,0,114,114,114,,,,,,,,,,,,5,,,,,f,3.59906637268,2018_Dec_19_1152,60.082444762,Arrows_VVA_Color,1004,
#2c7bb6,b,,,,,,,,,,,,,0,115,115,115,,,,,,,,,,,,3,0,,,,a,1.90055588354,2018_Dec_19_1152,60.082444762,Arrows_VVA_Color,1004,
#2c7bb6,b,,,,,,,,,,,,,0,116,116,116,,,,,,,,,,,,999,,,,,f,1.61712890635,2018_Dec_19_1152,60.082444762,Arrows_VVA_Color,1004,
#2c7bb6,b,,,,,,,,,,,,,0,117,117,117,,,,,,,,,,,,3,0,,,,f,1.16751653438,2018_Dec_19_1152,60.082444762,Arrows_VVA_Color,1004,
#d7191c,r,,,,,,,,,,,,,0,118,118,118,,,,,,,,,,,,4,,,,,f,2.30022753875,2018_Dec_19_1152,60.082444762,Arrows_VVA_Color,1004,
#2c7bb6,b,,,,,,,,,,,,,0,119,119,119,,,,,,,,,,,,3,0,,,,a,1.45043301083,2018_Dec_19_1152,60.082444762,Arrows_VVA_Color,1004,
