Direction,Random_within_format,Background,Format,Stimulus_Practice,Number,Random_format_order,Stimulus,direction,number,format,repeat_spatial_practice.thisRepN,repeat_spatial_practice.thisTrialN,repeat_spatial_practice.thisN,repeat_spatial_practice.thisIndex,trials_3.thisRepN,trials_3.thisTrialN,trials_3.thisN,trials_3.thisIndex,trials_2.thisRepN,trials_2.thisTrialN,trials_2.thisN,trials_2.thisIndex,key_resp_7.keys,key_resp_7.rt,key_resp_6.keys,key_resp_6.rt,key_resp_11.keys,key_resp_11.rt,key_resp_13.keys,key_resp_13.rt,color_response.keys,color_response.rt,date,frameRate,expName,participant,Scr or Whi,
,,,,,,,,,,,,,,,,,,,,,,,space,0.767911247793,,,,,,,,,2018_May_08_1329,59.9839596433,Arrows_VVA_Direction,1234,Whi,
ahead,0.118751139891,_WHI,schema,ahead_schema_2_WHI.jpg,2,0.361061419631,,,,,0,0,0,0,0,0,0,0,,,,,,,space,0.586471068789,f,0.48507035186,,,,,2018_May_08_1329,59.9839596433,Arrows_VVA_Direction,1234,Whi,
right,0.185081655401,_WHI,schema,right_schema_1_WHI.jpg,1,0.361061419631,,,,,0,0,0,0,0,1,1,1,,,,,,,,,j,0.286673001829,,,,,2018_May_08_1329,59.9839596433,Arrows_VVA_Direction,1234,Whi,
right,0.252740420756,_WHI,schema,right_schema_3_WHI.jpg,3,0.361061419631,,,,,0,0,0,0,0,2,2,2,,,,,,,,,f,0.0508568843943,,,,,2018_May_08_1329,59.9839596433,Arrows_VVA_Direction,1234,Whi,
ahead,0.58152538774,_WHI,schema,ahead_schema_3_WHI.jpg,3,0.361061419631,,,,,0,0,0,0,0,3,3,3,,,,,,,,,j,0.0544789237319,,,,,2018_May_08_1329,59.9839596433,Arrows_VVA_Direction,1234,Whi,
ahead,0.622295027222,_WHI,schema,ahead_schema_1_WHI.jpg,1,0.361061419631,,,,,0,0,0,0,0,4,4,4,,,,,,,,,f,0.017072444316,,,,,2018_May_08_1329,59.9839596433,Arrows_VVA_Direction,1234,Whi,
left,0.631451387086,_WHI,schema,left_schema_3_WHI.jpg,3,0.361061419631,,,,,0,0,0,0,0,5,5,5,,,,,,,,,j,0.051007266331,,,,,2018_May_08_1329,59.9839596433,Arrows_VVA_Direction,1234,Whi,
left,0.727062377481,_WHI,schema,left_schema_1_WHI.jpg,1,0.361061419631,,,,,0,0,0,0,0,6,6,6,,,,,,,,,f,0.034276253311,,,,,2018_May_08_1329,59.9839596433,Arrows_VVA_Direction,1234,Whi,
right,0.82194175512,_WHI,schema,right_schema_2_WHI.jpg,2,0.361061419631,,,,,0,0,0,0,0,7,7,7,,,,,,,,,j,0.0505660679773,,,,,2018_May_08_1329,59.9839596433,Arrows_VVA_Direction,1234,Whi,
left,0.897452651833,_WHI,schema,left_schema_2_WHI.jpg,2,0.361061419631,,,,,0,0,0,0,0,8,8,8,,,,,,,,,f,0.0509721576818,,,,,2018_May_08_1329,59.9839596433,Arrows_VVA_Direction,1234,Whi,
ahead,0.0263609018167,_WHI,image,ahead_image_1_WHI.jpg,1,0.46033210411,,,,,0,0,0,0,0,9,9,9,,,,,,,,,j,0.0340503878542,,,,,2018_May_08_1329,59.9839596433,Arrows_VVA_Direction,1234,Whi,
ahead,0.0371659913111,_WHI,image,ahead_image_2_WHI.jpg,2,0.46033210411,,,,,0,0,0,0,0,10,10,10,,,,,,,,,f,0.0172163896495,,,,,2018_May_08_1329,59.9839596433,Arrows_VVA_Direction,1234,Whi,
left,0.197895092928,_WHI,image,left_image_3_WHI.jpg,3,0.46033210411,,,,,0,0,0,0,0,11,11,11,,,,,,,,,j,0.0679120669374,,,,,2018_May_08_1329,59.9839596433,Arrows_VVA_Direction,1234,Whi,
left,0.595789165394,_WHI,image,left_image_1_WHI.jpg,1,0.46033210411,,,,,0,0,0,0,0,12,12,12,,,,,,,,,j,0.0679108966724,,,,,2018_May_08_1329,59.9839596433,Arrows_VVA_Direction,1234,Whi,
right,0.746993454447,_WHI,image,right_image_3_WHI.jpg,3,0.46033210411,,,,,0,0,0,0,0,13,13,13,,,,,,,,,j,0.0848467099131,,,,,2018_May_08_1329,59.9839596433,Arrows_VVA_Direction,1234,Whi,
right,0.755076891479,_WHI,image,right_image_1_WHI.jpg,1,0.46033210411,,,,,0,0,0,0,0,14,14,14,,,,,,,,,j,0.0841094288626,,,,,2018_May_08_1329,59.9839596433,Arrows_VVA_Direction,1234,Whi,
ahead,0.764293170365,_WHI,image,ahead_image_3_WHI.jpg,3,0.46033210411,,,,,0,0,0,0,0,15,15,15,,,,,,,,,j,0.100635641604,,,,,2018_May_08_1329,59.9839596433,Arrows_VVA_Direction,1234,Whi,
right,0.857745928729,_WHI,image,right_image_2_WHI.jpg,2,0.46033210411,,,,,0,0,0,0,0,16,16,16,,,,,,,,,j,0.100705566234,,,,,2018_May_08_1329,59.9839596433,Arrows_VVA_Direction,1234,Whi,
left,0.972897053454,_WHI,image,left_image_2_WHI.jpg,2,0.46033210411,,,,,0,0,0,0,0,17,17,17,,,,,,,,,f,0.0169650704484,,,,,2018_May_08_1329,59.9839596433,Arrows_VVA_Direction,1234,Whi,
left,0.0259202015148,_WHI,word,left_word_1_WHI.jpg,1,0.57093148646,,,,,0,0,0,0,0,18,18,18,,,,,,,,,j,0.0511438973481,,,,,2018_May_08_1329,59.9839596433,Arrows_VVA_Direction,1234,Whi,
right,0.107386856858,_WHI,word,right_word_3_WHI.jpg,3,0.57093148646,,,,,0,0,0,0,0,19,19,19,,,,,,,,,f,0.0506023468915,,,,,2018_May_08_1329,59.9839596433,Arrows_VVA_Direction,1234,Whi,
left,0.175133057318,_WHI,word,left_word_3_WHI.jpg,3,0.57093148646,,,,,0,0,0,0,0,20,20,20,,,,,,,,,j,0.06863120856,,,,,2018_May_08_1329,59.9839596433,Arrows_VVA_Direction,1234,Whi,
right,0.197478028793,_WHI,word,right_word_2_WHI.jpg,2,0.57093148646,,,,,0,0,0,0,0,21,21,21,,,,,,,,,f,0.0349295662018,,,,,2018_May_08_1329,59.9839596433,Arrows_VVA_Direction,1234,Whi,
ahead,0.200219922004,_WHI,word,ahead_word_3_WHI.jpg,3,0.57093148646,,,,,0,0,0,0,0,22,22,22,,,,,,,,,j,0.0529724713415,,,,,2018_May_08_1329,59.9839596433,Arrows_VVA_Direction,1234,Whi,
left,0.204464574437,_WHI,word,left_word_2_WHI.jpg,2,0.57093148646,,,,,0,0,0,0,0,23,23,23,,,,,,,,,f,0.033687306277,,,,,2018_May_08_1329,59.9839596433,Arrows_VVA_Direction,1234,Whi,
right,0.211692973185,_WHI,word,right_word_1_WHI.jpg,1,0.57093148646,,,,,0,0,0,0,0,24,24,24,,,,,,,,,j,0.0510125326109,,,,,2018_May_08_1329,59.9839596433,Arrows_VVA_Direction,1234,Whi,
ahead,0.308864696465,_WHI,word,ahead_word_2_WHI.jpg,2,0.57093148646,,,,,0,0,0,0,0,25,25,25,,,,,,,,,f,0.0503931580461,,,,,2018_May_08_1329,59.9839596433,Arrows_VVA_Direction,1234,Whi,
ahead,0.762362706624,_WHI,word,ahead_word_1_WHI.jpg,1,0.57093148646,,,,,0,0,0,0,0,26,26,26,,,,,,,,,j,0.0686013661907,,,,,2018_May_08_1329,59.9839596433,Arrows_VVA_Direction,1234,Whi,
ahead,0.118751139891,_WHI,schema,ahead_schema_2_WHI.jpg,2,0.361061419631,,,,,1,0,1,0,0,0,0,0,,,,,,,space,0.684192109678,f,0.301532140176,,,,,2018_May_08_1329,59.9839596433,Arrows_VVA_Direction,1234,Whi,
right,0.185081655401,_WHI,schema,right_schema_1_WHI.jpg,1,0.361061419631,,,,,1,0,1,0,0,1,1,1,,,,,,,,,j,0.0346314355265,,,,,2018_May_08_1329,59.9839596433,Arrows_VVA_Direction,1234,Whi,
right,0.252740420756,_WHI,schema,right_schema_3_WHI.jpg,3,0.361061419631,,,,,1,0,1,0,0,2,2,2,,,,,,,,,f,0.0512512712157,,,,,2018_May_08_1329,59.9839596433,Arrows_VVA_Direction,1234,Whi,
ahead,0.58152538774,_WHI,schema,ahead_schema_3_WHI.jpg,3,0.361061419631,,,,,1,0,1,0,0,3,3,3,,,,,,,,,j,0.0334710956668,,,,,2018_May_08_1329,59.9839596433,Arrows_VVA_Direction,1234,Whi,
ahead,0.622295027222,_WHI,schema,ahead_schema_1_WHI.jpg,1,0.361061419631,,,,,1,0,1,0,0,4,4,4,,,,,,,,,f,0.0337405543542,,,,,2018_May_08_1329,59.9839596433,Arrows_VVA_Direction,1234,Whi,
left,0.631451387086,_WHI,schema,left_schema_3_WHI.jpg,3,0.361061419631,,,,,1,0,1,0,0,5,5,5,,,,,,,,,j,0.0673289712868,,,,,2018_May_08_1329,59.9839596433,Arrows_VVA_Direction,1234,Whi,
left,0.727062377481,_WHI,schema,left_schema_1_WHI.jpg,1,0.361061419631,,,,,1,0,1,0,0,6,6,6,,,,,,,,,f,0.0512211362948,,,,,2018_May_08_1329,59.9839596433,Arrows_VVA_Direction,1234,Whi,
right,0.82194175512,_WHI,schema,right_schema_2_WHI.jpg,2,0.361061419631,,,,,1,0,1,0,0,7,7,7,,,,,,,,,j,0.0334596853936,,,,,2018_May_08_1329,59.9839596433,Arrows_VVA_Direction,1234,Whi,
left,0.897452651833,_WHI,schema,left_schema_2_WHI.jpg,2,0.361061419631,,,,,1,0,1,0,0,8,8,8,,,,,,,,,f,0.0172476948355,,,,,2018_May_08_1329,59.9839596433,Arrows_VVA_Direction,1234,Whi,
ahead,0.0263609018167,_WHI,image,ahead_image_1_WHI.jpg,1,0.46033210411,,,,,1,0,1,0,0,9,9,9,,,,,,,,,j,0.0508917004336,,,,,2018_May_08_1329,59.9839596433,Arrows_VVA_Direction,1234,Whi,
ahead,0.0371659913111,_WHI,image,ahead_image_2_WHI.jpg,2,0.46033210411,,,,,1,0,1,0,0,10,10,10,,,,,,,,,j,0.101450161543,,,,,2018_May_08_1329,59.9839596433,Arrows_VVA_Direction,1234,Whi,
left,0.197895092928,_WHI,image,left_image_3_WHI.jpg,3,0.46033210411,,,,,1,0,1,0,0,11,11,11,,,,,,,,,j,0.0845948056085,,,,,2018_May_08_1329,59.9839596433,Arrows_VVA_Direction,1234,Whi,
left,0.595789165394,_WHI,image,left_image_1_WHI.jpg,1,0.46033210411,,,,,1,0,1,0,0,12,12,12,,,,,,,,,f,0.000447342346888,,,,,2018_May_08_1329,59.9839596433,Arrows_VVA_Direction,1234,Whi,
right,0.746993454447,_WHI,image,right_image_3_WHI.jpg,3,0.46033210411,,,,,1,0,1,0,0,13,13,13,,,,,,,,,j,0.0675264573074,,,,,2018_May_08_1329,59.9839596433,Arrows_VVA_Direction,1234,Whi,
right,0.755076891479,_WHI,image,right_image_1_WHI.jpg,1,0.46033210411,,,,,1,0,1,0,0,14,14,14,,,,,,,,,f,0.0174846780137,,,,,2018_May_08_1329,59.9839596433,Arrows_VVA_Direction,1234,Whi,
ahead,0.764293170365,_WHI,image,ahead_image_3_WHI.jpg,3,0.46033210411,,,,,1,0,1,0,0,15,15,15,,,,,,,,,j,0.0677087295335,,,,,2018_May_08_1329,59.9839596433,Arrows_VVA_Direction,1234,Whi,
right,0.857745928729,_WHI,image,right_image_2_WHI.jpg,2,0.46033210411,,,,,1,0,1,0,0,16,16,16,,,,,,,,,f,0.0345208434155,,,,,2018_May_08_1329,59.9839596433,Arrows_VVA_Direction,1234,Whi,
left,0.972897053454,_WHI,image,left_image_2_WHI.jpg,2,0.46033210411,,,,,1,0,1,0,0,17,17,17,,,,,,,,,j,0.0169814545079,,,,,2018_May_08_1329,59.9839596433,Arrows_VVA_Direction,1234,Whi,
left,0.0259202015148,_WHI,word,left_word_1_WHI.jpg,1,0.57093148646,,,,,1,0,1,0,0,18,18,18,,,,,,,,,f,0.0674454148975,,,,,2018_May_08_1329,59.9839596433,Arrows_VVA_Direction,1234,Whi,
right,0.107386856858,_WHI,word,right_word_3_WHI.jpg,3,0.57093148646,,,,,1,0,1,0,0,19,19,19,,,,,,,,,j,0.0337013496901,,,,,2018_May_08_1329,59.9839596433,Arrows_VVA_Direction,1234,Whi,
left,0.175133057318,_WHI,word,left_word_3_WHI.jpg,3,0.57093148646,,,,,1,0,1,0,0,20,20,20,,,,,,,,,f,0.0506219491945,,,,,2018_May_08_1329,59.9839596433,Arrows_VVA_Direction,1234,Whi,
right,0.197478028793,_WHI,word,right_word_2_WHI.jpg,2,0.57093148646,,,,,1,0,1,0,0,21,21,21,,,,,,,,,j,0.0510142880375,,,,,2018_May_08_1329,59.9839596433,Arrows_VVA_Direction,1234,Whi,
ahead,0.200219922004,_WHI,word,ahead_word_3_WHI.jpg,3,0.57093148646,,,,,1,0,1,0,0,22,22,22,,,,,,,,,f,0.0512240620446,,,,,2018_May_08_1329,59.9839596433,Arrows_VVA_Direction,1234,Whi,
left,0.204464574437,_WHI,word,left_word_2_WHI.jpg,2,0.57093148646,,,,,1,0,1,0,0,23,23,23,,,,,,,,,j,0.0007864330546,,,,,2018_May_08_1329,59.9839596433,Arrows_VVA_Direction,1234,Whi,
right,0.211692973185,_WHI,word,right_word_1_WHI.jpg,1,0.57093148646,,,,,1,0,1,0,0,24,24,24,,,,,,,,,f,0.0682066868176,,,,,2018_May_08_1329,59.9839596433,Arrows_VVA_Direction,1234,Whi,
ahead,0.308864696465,_WHI,word,ahead_word_2_WHI.jpg,2,0.57093148646,,,,,1,0,1,0,0,25,25,25,,,,,,,,,j,0.00041252624942,,,,,2018_May_08_1329,59.9839596433,Arrows_VVA_Direction,1234,Whi,
ahead,0.762362706624,_WHI,word,ahead_word_1_WHI.jpg,1,0.57093148646,,,,,1,0,1,0,0,26,26,26,,,,,,,,,f,0.0534367828513,,,,,2018_May_08_1329,59.9839596433,Arrows_VVA_Direction,1234,Whi,
,,,,,,,,,,,,,,,,,,,,,,,,,,,,,space,0.51788052771,,,2018_May_08_1329,59.9839596433,Arrows_VVA_Direction,1234,Whi,
,,,,,,,ahead_schema_18_WHI.jpg,ahead,18,schema,,,,,,,,,0,0,0,0,,,,,,,,,f,0.300691873883,2018_May_08_1329,59.9839596433,Arrows_VVA_Direction,1234,Whi,
,,,,,,,left_schema_16_WHI.jpg,left,16,schema,,,,,,,,,0,1,1,1,,,,,,,,,j,0.101347176242,2018_May_08_1329,59.9839596433,Arrows_VVA_Direction,1234,Whi,
,,,,,,,ahead_schema_5_WHI.jpg,ahead,5,schema,,,,,,,,,0,2,2,2,,,,,,,,,f,0.0343327196897,2018_May_08_1329,59.9839596433,Arrows_VVA_Direction,1234,Whi,
,,,,,,,left_schema_11_WHI.jpg,left,11,schema,,,,,,,,,0,3,3,3,,,,,,,,,j,0.0168819800019,2018_May_08_1329,59.9839596433,Arrows_VVA_Direction,1234,Whi,
,,,,,,,ahead_schema_21_WHI.jpg,ahead,21,schema,,,,,,,,,0,4,4,4,,,,,,,,,f,0.0840950928978,2018_May_08_1329,59.9839596433,Arrows_VVA_Direction,1234,Whi,
,,,,,,,right_schema_19_WHI.jpg,right,19,schema,,,,,,,,,0,5,5,5,,,,,,,,,j,0.017196202185,2018_May_08_1329,59.9839596433,Arrows_VVA_Direction,1234,Whi,
,,,,,,,right_schema_13_WHI.jpg,right,13,schema,,,,,,,,,0,6,6,6,,,,,,,,,f,0.0679094337975,2018_May_08_1329,59.9839596433,Arrows_VVA_Direction,1234,Whi,
,,,,,,,left_schema_3_WHI.jpg,left,3,schema,,,,,,,,,0,7,7,7,,,,,,,,,j,0.0171055049286,2018_May_08_1329,59.9839596433,Arrows_VVA_Direction,1234,Whi,
,,,,,,,right_schema_10_WHI.jpg,right,10,schema,,,,,,,,,0,8,8,8,,,,,,,,,f,0.0712868830306,2018_May_08_1329,59.9839596433,Arrows_VVA_Direction,1234,Whi,
,,,,,,,left_schema_4_WHI.jpg,left,4,schema,,,,,,,,,0,9,9,9,,,,,,,,,j,0.0170370431151,2018_May_08_1329,59.9839596433,Arrows_VVA_Direction,1234,Whi,
,,,,,,,right_schema_16_WHI.jpg,right,16,schema,,,,,,,,,0,10,10,10,,,,,,,,,f,0.0675925785326,2018_May_08_1329,59.9839596433,Arrows_VVA_Direction,1234,Whi,
,,,,,,,ahead_schema_16_WHI.jpg,ahead,16,schema,,,,,,,,,0,11,11,11,,,,,,,,,j,0.0503542459919,2018_May_08_1329,59.9839596433,Arrows_VVA_Direction,1234,Whi,
,,,,,,,ahead_schema_11_WHI.jpg,ahead,11,schema,,,,,,,,,0,12,12,12,,,,,,,,,f,0.0337876583799,2018_May_08_1329,59.9839596433,Arrows_VVA_Direction,1234,Whi,
,,,,,,,left_schema_19_WHI.jpg,left,19,schema,,,,,,,,,0,13,13,13,,,,,,,,,j,0.0669316587737,2018_May_08_1329,59.9839596433,Arrows_VVA_Direction,1234,Whi,
,,,,,,,left_schema_17_WHI.jpg,left,17,schema,,,,,,,,,0,14,14,14,,,,,,,,,f,0.0504349957919,2018_May_08_1329,59.9839596433,Arrows_VVA_Direction,1234,Whi,
,,,,,,,right_schema_15_WHI.jpg,right,15,schema,,,,,,,,,0,15,15,15,,,,,,,,,j,0.0506201937678,2018_May_08_1329,59.9839596433,Arrows_VVA_Direction,1234,Whi,
,,,,,,,left_schema_18_WHI.jpg,left,18,schema,,,,,,,,,0,16,16,16,,,,,,,,,f,0.0512272803462,2018_May_08_1329,59.9839596433,Arrows_VVA_Direction,1234,Whi,
,,,,,,,right_schema_4_WHI.jpg,right,4,schema,,,,,,,,,0,17,17,17,,,,,,,,,j,0.016952489852,2018_May_08_1329,59.9839596433,Arrows_VVA_Direction,1234,Whi,
,,,,,,,ahead_schema_14_WHI.jpg,ahead,14,schema,,,,,,,,,0,18,18,18,,,,,,,,,f,0.0675115361228,2018_May_08_1329,59.9839596433,Arrows_VVA_Direction,1234,Whi,
,,,,,,,right_schema_21_WHI.jpg,right,21,schema,,,,,,,,,0,19,19,19,,,,,,,,,j,0.0350348921493,2018_May_08_1329,59.9839596433,Arrows_VVA_Direction,1234,Whi,
,,,,,,,ahead_schema_20_WHI.jpg,ahead,20,schema,,,,,,,,,0,20,20,20,,,,,,,,,f,0.0682575942483,2018_May_08_1329,59.9839596433,Arrows_VVA_Direction,1234,Whi,
,,,,,,,right_image_10_WHI.jpg,right,10,image,,,,,,,,,0,21,21,21,,,,,,,,,j,0.0170516716898,2018_May_08_1329,59.9839596433,Arrows_VVA_Direction,1234,Whi,
,,,,,,,right_image_1_WHI.jpg,right,1,image,,,,,,,,,0,22,22,22,,,,,,,,,f,0.0173111828626,2018_May_08_1329,59.9839596433,Arrows_VVA_Direction,1234,Whi,
,,,,,,,ahead_image_21_WHI.jpg,ahead,21,image,,,,,,,,,0,23,23,23,,,,,,,,,j,0.0512588780839,2018_May_08_1329,59.9839596433,Arrows_VVA_Direction,1234,Whi,
,,,,,,,right_image_13_WHI.jpg,right,13,image,,,,,,,,,0,24,24,24,,,,,,,,,f,0.000937400152907,2018_May_08_1329,59.9839596433,Arrows_VVA_Direction,1234,Whi,
,,,,,,,left_image_19_WHI.jpg,left,19,image,,,,,,,,,0,25,25,25,,,,,,,,,j,0.0678883686196,2018_May_08_1329,59.9839596433,Arrows_VVA_Direction,1234,Whi,
,,,,,,,right_image_17_WHI.jpg,right,17,image,,,,,,,,,0,26,26,26,,,,,,,,,f,0.0176014141762,2018_May_08_1329,59.9839596433,Arrows_VVA_Direction,1234,Whi,
,,,,,,,left_image_16_WHI.jpg,left,16,image,,,,,,,,,0,27,27,27,,,,,,,,,j,0.000239616376348,2018_May_08_1329,59.9839596433,Arrows_VVA_Direction,1234,Whi,
,,,,,,,right_image_12_WHI.jpg,right,12,image,,,,,,,,,0,28,28,28,,,,,,,,,f,0.0841223020689,2018_May_08_1329,59.9839596433,Arrows_VVA_Direction,1234,Whi,
,,,,,,,left_image_5_WHI.jpg,left,5,image,,,,,,,,,0,29,29,29,,,,,,,,,j,0.0337250480079,2018_May_08_1329,59.9839596433,Arrows_VVA_Direction,1234,Whi,
,,,,,,,left_image_20_WHI.jpg,left,20,image,,,,,,,,,0,30,30,30,,,,,,,,,f,0.0340673570172,2018_May_08_1329,59.9839596433,Arrows_VVA_Direction,1234,Whi,
,,,,,,,left_image_9_WHI.jpg,left,9,image,,,,,,,,,0,31,31,31,,,,,,,,,j,0.0509639657103,2018_May_08_1329,59.9839596433,Arrows_VVA_Direction,1234,Whi,
,,,,,,,ahead_image_7_WHI.jpg,ahead,7,image,,,,,,,,,0,32,32,32,,,,,,,,,f,0.0169428349473,2018_May_08_1329,59.9839596433,Arrows_VVA_Direction,1234,Whi,
,,,,,,,ahead_image_12_WHI.jpg,ahead,12,image,,,,,,,,,0,33,33,33,,,,,,,,,j,0.0679433721234,2018_May_08_1329,59.9839596433,Arrows_VVA_Direction,1234,Whi,
,,,,,,,ahead_image_9_WHI.jpg,ahead,9,image,,,,,,,,,0,34,34,34,,,,,,,,,f,0.000446464633569,2018_May_08_1329,59.9839596433,Arrows_VVA_Direction,1234,Whi,
,,,,,,,ahead_image_2_WHI.jpg,ahead,2,image,,,,,,,,,0,35,35,35,,,,,,,,,j,0.0677256986964,2018_May_08_1329,59.9839596433,Arrows_VVA_Direction,1234,Whi,
,,,,,,,ahead_image_3_WHI.jpg,ahead,3,image,,,,,,,,,0,36,36,36,,,,,,,,,f,0.0169776510447,2018_May_08_1329,59.9839596433,Arrows_VVA_Direction,1234,Whi,
,,,,,,,ahead_image_11_WHI.jpg,ahead,11,image,,,,,,,,,0,37,37,37,,,,,,,,,j,0.051068413828,2018_May_08_1329,59.9839596433,Arrows_VVA_Direction,1234,Whi,
,,,,,,,right_image_7_WHI.jpg,right,7,image,,,,,,,,,0,38,38,38,,,,,,,,,f,0.0178939860198,2018_May_08_1329,59.9839596433,Arrows_VVA_Direction,1234,Whi,
,,,,,,,right_image_21_WHI.jpg,right,21,image,,,,,,,,,0,39,39,39,,,,,,,,,j,0.0168582816841,2018_May_08_1329,59.9839596433,Arrows_VVA_Direction,1234,Whi,
,,,,,,,left_image_17_WHI.jpg,left,17,image,,,,,,,,,0,40,40,40,,,,,,,,,f,0.0688734579599,2018_May_08_1329,59.9839596433,Arrows_VVA_Direction,1234,Whi,
,,,,,,,left_image_14_WHI.jpg,left,14,image,,,,,,,,,0,41,41,41,,,,,,,,,j,0.000232594611589,2018_May_08_1329,59.9839596433,Arrows_VVA_Direction,1234,Whi,
,,,,,,,ahead_word_14_WHI.jpg,ahead,14,word,,,,,,,,,0,42,42,42,,,,,,,,,f,0.0511541373562,2018_May_08_1329,59.9839596433,Arrows_VVA_Direction,1234,Whi,
,,,,,,,left_word_18_WHI.jpg,left,18,word,,,,,,,,,0,43,43,43,,,,,,,,,j,0.0524666146375,2018_May_08_1329,59.9839596433,Arrows_VVA_Direction,1234,Whi,
,,,,,,,ahead_word_12_WHI.jpg,ahead,12,word,,,,,,,,,0,44,44,44,,,,,,,,,f,0.0337297291844,2018_May_08_1329,59.9839596433,Arrows_VVA_Direction,1234,Whi,
,,,,,,,left_word_2_WHI.jpg,left,2,word,,,,,,,,,0,45,45,45,,,,,,,,,j,0.0678462382639,2018_May_08_1329,59.9839596433,Arrows_VVA_Direction,1234,Whi,
,,,,,,,right_word_8_WHI.jpg,right,8,word,,,,,,,,,0,46,46,46,,,,,,,,,f,0.0336565861944,2018_May_08_1329,59.9839596433,Arrows_VVA_Direction,1234,Whi,
,,,,,,,ahead_word_1_WHI.jpg,ahead,1,word,,,,,,,,,0,47,47,47,,,,,,,,,j,0.0680282179965,2018_May_08_1329,59.9839596433,Arrows_VVA_Direction,1234,Whi,
,,,,,,,left_word_21_WHI.jpg,left,21,word,,,,,,,,,0,48,48,48,,,,,,,,,f,0.0338581682299,2018_May_08_1329,59.9839596433,Arrows_VVA_Direction,1234,Whi,
,,,,,,,ahead_word_17_WHI.jpg,ahead,17,word,,,,,,,,,0,49,49,49,,,,,,,,,j,0.0518153497251,2018_May_08_1329,59.9839596433,Arrows_VVA_Direction,1234,Whi,
,,,,,,,right_word_11_WHI.jpg,right,11,word,,,,,,,,,0,50,50,50,,,,,,,,,f,0.0344240021077,2018_May_08_1329,59.9839596433,Arrows_VVA_Direction,1234,Whi,
,,,,,,,right_word_10_WHI.jpg,right,10,word,,,,,,,,,0,51,51,51,,,,,,,,,j,0.0336217700969,2018_May_08_1329,59.9839596433,Arrows_VVA_Direction,1234,Whi,
,,,,,,,left_word_14_WHI.jpg,left,14,word,,,,,,,,,0,52,52,52,,,,,,,,,f,0.0533092215192,2018_May_08_1329,59.9839596433,Arrows_VVA_Direction,1234,Whi,
,,,,,,,ahead_word_20_WHI.jpg,ahead,20,word,,,,,,,,,0,53,53,53,,,,,,,,,j,0.050536518218,2018_May_08_1329,59.9839596433,Arrows_VVA_Direction,1234,Whi,
,,,,,,,right_word_13_WHI.jpg,right,13,word,,,,,,,,,0,54,54,54,,,,,,,,,f,0.0168834428769,2018_May_08_1329,59.9839596433,Arrows_VVA_Direction,1234,Whi,
,,,,,,,right_word_21_WHI.jpg,right,21,word,,,,,,,,,0,55,55,55,,,,,,,,,j,0.0679664853378,2018_May_08_1329,59.9839596433,Arrows_VVA_Direction,1234,Whi,
,,,,,,,ahead_word_4_WHI.jpg,ahead,4,word,,,,,,,,,0,56,56,56,,,,,,,,,f,0.0337727372535,2018_May_08_1329,59.9839596433,Arrows_VVA_Direction,1234,Whi,
,,,,,,,ahead_word_8_WHI.jpg,ahead,8,word,,,,,,,,,0,57,57,57,,,,,,,,,j,0.0677286243881,2018_May_08_1329,59.9839596433,Arrows_VVA_Direction,1234,Whi,
,,,,,,,left_word_9_WHI.jpg,left,9,word,,,,,,,,,0,58,58,58,,,,,,,,,f,0.0343967929366,2018_May_08_1329,59.9839596433,Arrows_VVA_Direction,1234,Whi,
,,,,,,,right_word_16_WHI.jpg,right,16,word,,,,,,,,,0,59,59,59,,,,,,,,,j,0.0511901237187,2018_May_08_1329,59.9839596433,Arrows_VVA_Direction,1234,Whi,
,,,,,,,right_word_15_WHI.jpg,right,15,word,,,,,,,,,0,60,60,60,,,,,,,,,f,0.0169738476397,2018_May_08_1329,59.9839596433,Arrows_VVA_Direction,1234,Whi,
,,,,,,,left_word_7_WHI.jpg,left,7,word,,,,,,,,,0,61,61,61,,,,,,,,,j,0.0683292744216,2018_May_08_1329,59.9839596433,Arrows_VVA_Direction,1234,Whi,
,,,,,,,left_word_12_WHI.jpg,left,12,word,,,,,,,,,0,62,62,62,,,,,,,,,f,0.0168603297207,2018_May_08_1329,59.9839596433,Arrows_VVA_Direction,1234,Whi,
,,,,,,,ahead_image_10_WHI.jpg,ahead,10,image,,,,,,,,,0,63,63,63,,,,,,,,,j,0.0514540235163,2018_May_08_1329,59.9839596433,Arrows_VVA_Direction,1234,Whi,
,,,,,,,ahead_image_18_WHI.jpg,ahead,18,image,,,,,,,,,0,64,64,64,,,,,,,,,f,0.000352256465703,2018_May_08_1329,59.9839596433,Arrows_VVA_Direction,1234,Whi,
,,,,,,,ahead_image_19_WHI.jpg,ahead,19,image,,,,,,,,,0,65,65,65,,,,,,,,,j,0.0677265764098,2018_May_08_1329,59.9839596433,Arrows_VVA_Direction,1234,Whi,
,,,,,,,left_image_1_WHI.jpg,left,1,image,,,,,,,,,0,66,66,66,,,,,,,,,j,0.101469471294,2018_May_08_1329,59.9839596433,Arrows_VVA_Direction,1234,Whi,
,,,,,,,left_image_10_WHI.jpg,left,10,image,,,,,,,,,0,67,67,67,,,,,,,,,f,0.000428325147368,2018_May_08_1329,59.9839596433,Arrows_VVA_Direction,1234,Whi,
,,,,,,,right_image_9_WHI.jpg,right,9,image,,,,,,,,,0,68,68,68,,,,,,,,,j,0.0682415028568,2018_May_08_1329,59.9839596433,Arrows_VVA_Direction,1234,Whi,
,,,,,,,ahead_image_4_WHI.jpg,ahead,4,image,,,,,,,,,0,69,69,69,,,,,,,,,j,0.101034416992,2018_May_08_1329,59.9839596433,Arrows_VVA_Direction,1234,Whi,
,,,,,,,left_image_13_WHI.jpg,left,13,image,,,,,,,,,0,70,70,70,,,,,,,,,f,0.0172482799971,2018_May_08_1329,59.9839596433,Arrows_VVA_Direction,1234,Whi,
,,,,,,,right_image_20_WHI.jpg,right,20,image,,,,,,,,,0,71,71,71,,,,,,,,,j,0.0171262774966,2018_May_08_1329,59.9839596433,Arrows_VVA_Direction,1234,Whi,
,,,,,,,ahead_image_14_WHI.jpg,ahead,14,image,,,,,,,,,0,72,72,72,,,,,,,,,f,0.017995215836,2018_May_08_1329,59.9839596433,Arrows_VVA_Direction,1234,Whi,
,,,,,,,left_image_2_WHI.jpg,left,2,image,,,,,,,,,0,73,73,73,,,,,,,,,j,0.0679761401843,2018_May_08_1329,59.9839596433,Arrows_VVA_Direction,1234,Whi,
,,,,,,,ahead_image_5_WHI.jpg,ahead,5,image,,,,,,,,,0,74,74,74,,,,,,,,,j,0.134906628635,2018_May_08_1329,59.9839596433,Arrows_VVA_Direction,1234,Whi,
,,,,,,,left_image_21_WHI.jpg,left,21,image,,,,,,,,,0,75,75,75,,,,,,,,,j,0.10174097796,2018_May_08_1329,59.9839596433,Arrows_VVA_Direction,1234,Whi,
,,,,,,,right_image_5_WHI.jpg,right,5,image,,,,,,,,,0,76,76,76,,,,,,,,,j,0.118206043087,2018_May_08_1329,59.9839596433,Arrows_VVA_Direction,1234,Whi,
,,,,,,,right_image_2_WHI.jpg,right,2,image,,,,,,,,,0,77,77,77,,,,,,,,,f,0.000424814294092,2018_May_08_1329,59.9839596433,Arrows_VVA_Direction,1234,Whi,
,,,,,,,right_image_11_WHI.jpg,right,11,image,,,,,,,,,0,78,78,78,,,,,,,,,j,0.0681376398425,2018_May_08_1329,59.9839596433,Arrows_VVA_Direction,1234,Whi,
,,,,,,,ahead_image_8_WHI.jpg,ahead,8,image,,,,,,,,,0,79,79,79,,,,,,,,,j,0.117883921543,2018_May_08_1329,59.9839596433,Arrows_VVA_Direction,1234,Whi,
,,,,,,,right_image_18_WHI.jpg,right,18,image,,,,,,,,,0,80,80,80,,,,,,,,,f,0.000351671362296,2018_May_08_1329,59.9839596433,Arrows_VVA_Direction,1234,Whi,
,,,,,,,right_image_16_WHI.jpg,right,16,image,,,,,,,,,0,81,81,81,,,,,,,,,j,0.0678787137731,2018_May_08_1329,59.9839596433,Arrows_VVA_Direction,1234,Whi,
,,,,,,,left_image_11_WHI.jpg,left,11,image,,,,,,,,,0,82,82,82,,,,,,,,,j,0.1018787793,2018_May_08_1329,59.9839596433,Arrows_VVA_Direction,1234,Whi,
,,,,,,,left_image_3_WHI.jpg,left,3,image,,,,,,,,,0,83,83,83,,,,,,,,,f,0.000299008446746,2018_May_08_1329,59.9839596433,Arrows_VVA_Direction,1234,Whi,
,,,,,,,left_word_5_WHI.jpg,left,5,word,,,,,,,,,0,84,84,84,,,,,,,,,j,0.0675077326596,2018_May_08_1329,59.9839596433,Arrows_VVA_Direction,1234,Whi,
,,,,,,,left_word_1_WHI.jpg,left,1,word,,,,,,,,,0,85,85,85,,,,,,,,,f,0.0335767141078,2018_May_08_1329,59.9839596433,Arrows_VVA_Direction,1234,Whi,
,,,,,,,ahead_word_10_WHI.jpg,ahead,10,word,,,,,,,,,0,86,86,86,,,,,,,,,j,0.0682950434857,2018_May_08_1329,59.9839596433,Arrows_VVA_Direction,1234,Whi,
,,,,,,,left_word_3_WHI.jpg,left,3,word,,,,,,,,,0,87,87,87,,,,,,,,,f,0.0176134096109,2018_May_08_1329,59.9839596433,Arrows_VVA_Direction,1234,Whi,
,,,,,,,right_word_7_WHI.jpg,right,7,word,,,,,,,,,0,88,88,88,,,,,,,,,j,0.0672136979993,2018_May_08_1329,59.9839596433,Arrows_VVA_Direction,1234,Whi,
,,,,,,,left_word_20_WHI.jpg,left,20,word,,,,,,,,,0,89,89,89,,,,,,,,,f,0.0174940403085,2018_May_08_1329,59.9839596433,Arrows_VVA_Direction,1234,Whi,
,,,,,,,left_word_19_WHI.jpg,left,19,word,,,,,,,,,0,90,90,90,,,,,,,,,j,0.0839350561146,2018_May_08_1329,59.9839596433,Arrows_VVA_Direction,1234,Whi,
,,,,,,,ahead_word_9_WHI.jpg,ahead,9,word,,,,,,,,,0,91,91,91,,,,,,,,,f,0.0338833293645,2018_May_08_1329,59.9839596433,Arrows_VVA_Direction,1234,Whi,
,,,,,,,right_word_6_WHI.jpg,right,6,word,,,,,,,,,0,92,92,92,,,,,,,,,j,0.0845965610351,2018_May_08_1329,59.9839596433,Arrows_VVA_Direction,1234,Whi,
,,,,,,,ahead_word_16_WHI.jpg,ahead,16,word,,,,,,,,,0,93,93,93,,,,,,,,,f,0.0352639758494,2018_May_08_1329,59.9839596433,Arrows_VVA_Direction,1234,Whi,
,,,,,,,right_word_4_WHI.jpg,right,4,word,,,,,,,,,0,94,94,94,,,,,,,,,j,0.051957539632,2018_May_08_1329,59.9839596433,Arrows_VVA_Direction,1234,Whi,
,,,,,,,ahead_word_19_WHI.jpg,ahead,19,word,,,,,,,,,0,95,95,95,,,,,,,,,f,0.0168126404751,2018_May_08_1329,59.9839596433,Arrows_VVA_Direction,1234,Whi,
,,,,,,,right_word_14_WHI.jpg,right,14,word,,,,,,,,,0,96,96,96,,,,,,,,,j,0.0678509194404,2018_May_08_1329,59.9839596433,Arrows_VVA_Direction,1234,Whi,
,,,,,,,ahead_word_6_WHI.jpg,ahead,6,word,,,,,,,,,0,97,97,97,,,,,,,,,f,0.000687543826643,2018_May_08_1329,59.9839596433,Arrows_VVA_Direction,1234,Whi,
,,,,,,,left_word_8_WHI.jpg,left,8,word,,,,,,,,,0,98,98,98,,,,,,,,,j,0.0678131776513,2018_May_08_1329,59.9839596433,Arrows_VVA_Direction,1234,Whi,
,,,,,,,left_word_6_WHI.jpg,left,6,word,,,,,,,,,0,99,99,99,,,,,,,,,f,0.000946177344304,2018_May_08_1329,59.9839596433,Arrows_VVA_Direction,1234,Whi,
,,,,,,,ahead_word_11_WHI.jpg,ahead,11,word,,,,,,,,,0,100,100,100,,,,,,,,,j,0.101354490558,2018_May_08_1329,59.9839596433,Arrows_VVA_Direction,1234,Whi,
,,,,,,,right_word_9_WHI.jpg,right,9,word,,,,,,,,,0,101,101,101,,,,,,,,,f,0.017181866162,2018_May_08_1329,59.9839596433,Arrows_VVA_Direction,1234,Whi,
,,,,,,,right_word_18_WHI.jpg,right,18,word,,,,,,,,,0,102,102,102,,,,,,,,,j,0.0690217919182,2018_May_08_1329,59.9839596433,Arrows_VVA_Direction,1234,Whi,
,,,,,,,ahead_word_5_WHI.jpg,ahead,5,word,,,,,,,,,0,103,103,103,,,,,,,,,f,0.0343107767985,2018_May_08_1329,59.9839596433,Arrows_VVA_Direction,1234,Whi,
,,,,,,,right_word_2_WHI.jpg,right,2,word,,,,,,,,,0,104,104,104,,,,,,,,,j,0.0344833942363,2018_May_08_1329,59.9839596433,Arrows_VVA_Direction,1234,Whi,
,,,,,,,ahead_schema_8_WHI.jpg,ahead,8,schema,,,,,,,,,0,105,105,105,,,,,,,,,f,0.0174252859433,2018_May_08_1329,59.9839596433,Arrows_VVA_Direction,1234,Whi,
,,,,,,,left_schema_21_WHI.jpg,left,21,schema,,,,,,,,,0,106,106,106,,,,,,,,,j,0.0848894254304,2018_May_08_1329,59.9839596433,Arrows_VVA_Direction,1234,Whi,
,,,,,,,left_schema_5_WHI.jpg,left,5,schema,,,,,,,,,0,107,107,107,,,,,,,,,f,0.0172728559701,2018_May_08_1329,59.9839596433,Arrows_VVA_Direction,1234,Whi,
,,,,,,,right_schema_7_WHI.jpg,right,7,schema,,,,,,,,,0,108,108,108,,,,,,,,,j,0.0843853240949,2018_May_08_1329,59.9839596433,Arrows_VVA_Direction,1234,Whi,
,,,,,,,left_schema_9_WHI.jpg,left,9,schema,,,,,,,,,0,109,109,109,,,,,,,,,f,0.0339772449224,2018_May_08_1329,59.9839596433,Arrows_VVA_Direction,1234,Whi,
,,,,,,,left_schema_6_WHI.jpg,left,6,schema,,,,,,,,,0,110,110,110,,,,,,,,,j,0.0174606871442,2018_May_08_1329,59.9839596433,Arrows_VVA_Direction,1234,Whi,
,,,,,,,ahead_schema_10_WHI.jpg,ahead,10,schema,,,,,,,,,0,111,111,111,,,,,,,,,f,0.0180352982134,2018_May_08_1329,59.9839596433,Arrows_VVA_Direction,1234,Whi,
,,,,,,,ahead_schema_17_WHI.jpg,ahead,17,schema,,,,,,,,,0,112,112,112,,,,,,,,,j,0.0509385119076,2018_May_08_1329,59.9839596433,Arrows_VVA_Direction,1234,Whi,
,,,,,,,right_schema_20_WHI.jpg,right,20,schema,,,,,,,,,0,113,113,113,,,,,,,,,f,0.000998547649942,2018_May_08_1329,59.9839596433,Arrows_VVA_Direction,1234,Whi,
,,,,,,,ahead_schema_15_WHI.jpg,ahead,15,schema,,,,,,,,,0,114,114,114,,,,,,,,,j,0.0674974926515,2018_May_08_1329,59.9839596433,Arrows_VVA_Direction,1234,Whi,
,,,,,,,right_schema_9_WHI.jpg,right,9,schema,,,,,,,,,0,115,115,115,,,,,,,,,f,0.0511754950858,2018_May_08_1329,59.9839596433,Arrows_VVA_Direction,1234,Whi,
,,,,,,,left_schema_15_WHI.jpg,left,15,schema,,,,,,,,,0,116,116,116,,,,,,,,,j,0.0510886012344,2018_May_08_1329,59.9839596433,Arrows_VVA_Direction,1234,Whi,
,,,,,,,right_schema_5_WHI.jpg,right,5,schema,,,,,,,,,0,117,117,117,,,,,,,,,f,0.000589239702094,2018_May_08_1329,59.9839596433,Arrows_VVA_Direction,1234,Whi,
,,,,,,,left_schema_10_WHI.jpg,left,10,schema,,,,,,,,,0,118,118,118,,,,,,,,,j,0.0841960301041,2018_May_08_1329,59.9839596433,Arrows_VVA_Direction,1234,Whi,
,,,,,,,left_schema_2_WHI.jpg,left,2,schema,,,,,,,,,0,119,119,119,,,,,,,,,f,0.0350202635746,2018_May_08_1329,59.9839596433,Arrows_VVA_Direction,1234,Whi,
,,,,,,,ahead_schema_2_WHI.jpg,ahead,2,schema,,,,,,,,,0,120,120,120,,,,,,,,,j,0.0684527397389,2018_May_08_1329,59.9839596433,Arrows_VVA_Direction,1234,Whi,
,,,,,,,ahead_schema_4_WHI.jpg,ahead,4,schema,,,,,,,,,0,121,121,121,,,,,,,,,f,0.0164562880527,2018_May_08_1329,59.9839596433,Arrows_VVA_Direction,1234,Whi,
,,,,,,,right_schema_1_WHI.jpg,right,1,schema,,,,,,,,,0,122,122,122,,,,,,,,,j,0.0341647834866,2018_May_08_1329,59.9839596433,Arrows_VVA_Direction,1234,Whi,
,,,,,,,ahead_schema_13_WHI.jpg,ahead,13,schema,,,,,,,,,0,123,123,123,,,,,,,,,f,0.0339310185518,2018_May_08_1329,59.9839596433,Arrows_VVA_Direction,1234,Whi,
,,,,,,,right_schema_6_WHI.jpg,right,6,schema,,,,,,,,,0,124,124,124,,,,,,,,,j,0.0347177442163,2018_May_08_1329,59.9839596433,Arrows_VVA_Direction,1234,Whi,
,,,,,,,right_schema_11_WHI.jpg,right,11,schema,,,,,,,,,0,125,125,125,,,,,,,,,f,0.0343315494247,2018_May_08_1329,59.9839596433,Arrows_VVA_Direction,1234,Whi,
,,,,,,,ahead_word_15_WHI.jpg,ahead,15,word,,,,,,,,,0,126,126,126,,,,,,,,,j,0.00045056064846,2018_May_08_1329,59.9839596433,Arrows_VVA_Direction,1234,Whi,
,,,,,,,left_word_11_WHI.jpg,left,11,word,,,,,,,,,0,127,127,127,,,,,,,,,f,0.0845766661223,2018_May_08_1329,59.9839596433,Arrows_VVA_Direction,1234,Whi,
,,,,,,,right_word_20_WHI.jpg,right,20,word,,,,,,,,,0,128,128,128,,,,,,,,,j,0.0180964457686,2018_May_08_1329,59.9839596433,Arrows_VVA_Direction,1234,Whi,
,,,,,,,ahead_word_21_WHI.jpg,ahead,21,word,,,,,,,,,0,129,129,129,,,,,,,,,f,0.0351527985767,2018_May_08_1329,59.9839596433,Arrows_VVA_Direction,1234,Whi,
,,,,,,,left_word_15_WHI.jpg,left,15,word,,,,,,,,,0,130,130,130,,,,,,,,,j,0.0342721573543,2018_May_08_1329,59.9839596433,Arrows_VVA_Direction,1234,Whi,
,,,,,,,right_word_5_WHI.jpg,right,5,word,,,,,,,,,0,131,131,131,,,,,,,,,f,0.0512977901381,2018_May_08_1329,59.9839596433,Arrows_VVA_Direction,1234,Whi,
,,,,,,,left_word_10_WHI.jpg,left,10,word,,,,,,,,,0,132,132,132,,,,,,,,,j,0.0349766702857,2018_May_08_1329,59.9839596433,Arrows_VVA_Direction,1234,Whi,
,,,,,,,left_word_4_WHI.jpg,left,4,word,,,,,,,,,0,133,133,133,,,,,,,,,f,0.0340018210118,2018_May_08_1329,59.9839596433,Arrows_VVA_Direction,1234,Whi,
,,,,,,,ahead_word_13_WHI.jpg,ahead,13,word,,,,,,,,,0,134,134,134,,,,,,,,,j,0.0509724502917,2018_May_08_1329,59.9839596433,Arrows_VVA_Direction,1234,Whi,
,,,,,,,left_word_16_WHI.jpg,left,16,word,,,,,,,,,0,135,135,135,,,,,,,,,f,0.0675296755508,2018_May_08_1329,59.9839596433,Arrows_VVA_Direction,1234,Whi,
,,,,,,,ahead_word_7_WHI.jpg,ahead,7,word,,,,,,,,,0,136,136,136,,,,,,,,,j,0.000960220757406,2018_May_08_1329,59.9839596433,Arrows_VVA_Direction,1234,Whi,
,,,,,,,ahead_word_3_WHI.jpg,ahead,3,word,,,,,,,,,0,137,137,137,,,,,,,,,f,0.0174416699447,2018_May_08_1329,59.9839596433,Arrows_VVA_Direction,1234,Whi,
,,,,,,,left_word_17_WHI.jpg,left,17,word,,,,,,,,,0,138,138,138,,,,,,,,,j,0.0511971454252,2018_May_08_1329,59.9839596433,Arrows_VVA_Direction,1234,Whi,
,,,,,,,right_word_17_WHI.jpg,right,17,word,,,,,,,,,0,139,139,139,,,,,,,,,f,0.0172362845624,2018_May_08_1329,59.9839596433,Arrows_VVA_Direction,1234,Whi,
,,,,,,,right_word_12_WHI.jpg,right,12,word,,,,,,,,,0,140,140,140,,,,,,,,,j,0.0845986090135,2018_May_08_1329,59.9839596433,Arrows_VVA_Direction,1234,Whi,
,,,,,,,ahead_word_18_WHI.jpg,ahead,18,word,,,,,,,,,0,141,141,141,,,,,,,,,j,0.134698610054,2018_May_08_1329,59.9839596433,Arrows_VVA_Direction,1234,Whi,
,,,,,,,right_word_19_WHI.jpg,right,19,word,,,,,,,,,0,142,142,142,,,,,,,,,f,0.000773852516431,2018_May_08_1329,59.9839596433,Arrows_VVA_Direction,1234,Whi,
,,,,,,,ahead_word_2_WHI.jpg,ahead,2,word,,,,,,,,,0,143,143,143,,,,,,,,,j,0.0838584022713,2018_May_08_1329,59.9839596433,Arrows_VVA_Direction,1234,Whi,
,,,,,,,right_word_3_WHI.jpg,right,3,word,,,,,,,,,0,144,144,144,,,,,,,,,f,0.0169422498439,2018_May_08_1329,59.9839596433,Arrows_VVA_Direction,1234,Whi,
,,,,,,,left_word_13_WHI.jpg,left,13,word,,,,,,,,,0,145,145,145,,,,,,,,,j,0.101684511639,2018_May_08_1329,59.9839596433,Arrows_VVA_Direction,1234,Whi,
,,,,,,,right_word_1_WHI.jpg,right,1,word,,,,,,,,,0,146,146,146,,,,,,,,,f,0.000322999316268,2018_May_08_1329,59.9839596433,Arrows_VVA_Direction,1234,Whi,
,,,,,,,left_schema_12_WHI.jpg,left,12,schema,,,,,,,,,0,147,147,147,,,,,,,,,j,0.117841791187,2018_May_08_1329,59.9839596433,Arrows_VVA_Direction,1234,Whi,
,,,,,,,ahead_schema_19_WHI.jpg,ahead,19,schema,,,,,,,,,0,148,148,148,,,,,,,,,j,0.117971107946,2018_May_08_1329,59.9839596433,Arrows_VVA_Direction,1234,Whi,
,,,,,,,right_schema_17_WHI.jpg,right,17,schema,,,,,,,,,0,149,149,149,,,,,,,,,f,0.0170689334045,2018_May_08_1329,59.9839596433,Arrows_VVA_Direction,1234,Whi,
,,,,,,,ahead_schema_12_WHI.jpg,ahead,12,schema,,,,,,,,,0,150,150,150,,,,,,,,,j,0.0843083776999,2018_May_08_1329,59.9839596433,Arrows_VVA_Direction,1234,Whi,
,,,,,,,left_schema_20_WHI.jpg,left,20,schema,,,,,,,,,0,151,151,151,,,,,,,,,f,0.033949158038,2018_May_08_1329,59.9839596433,Arrows_VVA_Direction,1234,Whi,
,,,,,,,right_schema_14_WHI.jpg,right,14,schema,,,,,,,,,0,152,152,152,,,,,,,,,j,0.0507846191176,2018_May_08_1329,59.9839596433,Arrows_VVA_Direction,1234,Whi,
,,,,,,,right_schema_2_WHI.jpg,right,2,schema,,,,,,,,,0,153,153,153,,,,,,,,,f,0.0683371738414,2018_May_08_1329,59.9839596433,Arrows_VVA_Direction,1234,Whi,
,,,,,,,left_schema_13_WHI.jpg,left,13,schema,,,,,,,,,0,154,154,154,,,,,,,,,f,0.136784939794,2018_May_08_1329,59.9839596433,Arrows_VVA_Direction,1234,Whi,
,,,,,,,right_schema_12_WHI.jpg,right,12,schema,,,,,,,,,0,155,155,155,,,,,,,,,j,0.00029052386526,2018_May_08_1329,59.9839596433,Arrows_VVA_Direction,1234,Whi,
,,,,,,,ahead_schema_1_WHI.jpg,ahead,1,schema,,,,,,,,,0,156,156,156,,,,,,,,,f,0.0682318479521,2018_May_08_1329,59.9839596433,Arrows_VVA_Direction,1234,Whi,
,,,,,,,left_schema_14_WHI.jpg,left,14,schema,,,,,,,,,0,157,157,157,,,,,,,,,j,0.0359547379776,2018_May_08_1329,59.9839596433,Arrows_VVA_Direction,1234,Whi,
,,,,,,,ahead_schema_6_WHI.jpg,ahead,6,schema,,,,,,,,,0,158,158,158,,,,,,,,,f,0.0180110147339,2018_May_08_1329,59.9839596433,Arrows_VVA_Direction,1234,Whi,
,,,,,,,left_schema_1_WHI.jpg,left,1,schema,,,,,,,,,0,159,159,159,,,,,,,,,j,0.0511307316483,2018_May_08_1329,59.9839596433,Arrows_VVA_Direction,1234,Whi,
,,,,,,,ahead_schema_3_WHI.jpg,ahead,3,schema,,,,,,,,,0,160,160,160,,,,,,,,,f,0.0167620255961,2018_May_08_1329,59.9839596433,Arrows_VVA_Direction,1234,Whi,
,,,,,,,right_schema_8_WHI.jpg,right,8,schema,,,,,,,,,0,161,161,161,,,,,,,,,j,0.0849110757699,2018_May_08_1329,59.9839596433,Arrows_VVA_Direction,1234,Whi,
,,,,,,,ahead_schema_7_WHI.jpg,ahead,7,schema,,,,,,,,,0,162,162,162,,,,,,,,,f,0.0168775914353,2018_May_08_1329,59.9839596433,Arrows_VVA_Direction,1234,Whi,
,,,,,,,left_schema_7_WHI.jpg,left,7,schema,,,,,,,,,0,163,163,163,,,,,,,,,j,0.0510514446651,2018_May_08_1329,59.9839596433,Arrows_VVA_Direction,1234,Whi,
,,,,,,,right_schema_3_WHI.jpg,right,3,schema,,,,,,,,,0,164,164,164,,,,,,,,,f,0.0344594033086,2018_May_08_1329,59.9839596433,Arrows_VVA_Direction,1234,Whi,
,,,,,,,left_schema_8_WHI.jpg,left,8,schema,,,,,,,,,0,165,165,165,,,,,,,,,j,0.0338294961257,2018_May_08_1329,59.9839596433,Arrows_VVA_Direction,1234,Whi,
,,,,,,,right_schema_18_WHI.jpg,right,18,schema,,,,,,,,,0,166,166,166,,,,,,,,,f,0.0682783669326,2018_May_08_1329,59.9839596433,Arrows_VVA_Direction,1234,Whi,
,,,,,,,ahead_schema_9_WHI.jpg,ahead,9,schema,,,,,,,,,0,167,167,167,,,,,,,,,j,0.0176482256502,2018_May_08_1329,59.9839596433,Arrows_VVA_Direction,1234,Whi,
,,,,,,,left_image_18_WHI.jpg,left,18,image,,,,,,,,,0,168,168,168,,,,,,,,,f,0.0673365781549,2018_May_08_1329,59.9839596433,Arrows_VVA_Direction,1234,Whi,
,,,,,,,left_image_12_WHI.jpg,left,12,image,,,,,,,,,0,169,169,169,,,,,,,,,j,0.0338970802841,2018_May_08_1329,59.9839596433,Arrows_VVA_Direction,1234,Whi,
,,,,,,,left_image_8_WHI.jpg,left,8,image,,,,,,,,,0,170,170,170,,,,,,,,,f,0.0343060956802,2018_May_08_1329,59.9839596433,Arrows_VVA_Direction,1234,Whi,
,,,,,,,right_image_3_WHI.jpg,right,3,image,,,,,,,,,0,171,171,171,,,,,,,,,j,0.151778076077,2018_May_08_1329,59.9839596433,Arrows_VVA_Direction,1234,Whi,
,,,,,,,right_image_14_WHI.jpg,right,14,image,,,,,,,,,0,172,172,172,,,,,,,,,j,0.118205457984,2018_May_08_1329,59.9839596433,Arrows_VVA_Direction,1234,Whi,
,,,,,,,right_image_15_WHI.jpg,right,15,image,,,,,,,,,0,173,173,173,,,,,,,,,f,0.0174928700435,2018_May_08_1329,59.9839596433,Arrows_VVA_Direction,1234,Whi,
,,,,,,,right_image_8_WHI.jpg,right,8,image,,,,,,,,,0,174,174,174,,,,,,,,,j,0.0340372221544,2018_May_08_1329,59.9839596433,Arrows_VVA_Direction,1234,Whi,
,,,,,,,left_image_15_WHI.jpg,left,15,image,,,,,,,,,0,175,175,175,,,,,,,,,f,0.0340969067765,2018_May_08_1329,59.9839596433,Arrows_VVA_Direction,1234,Whi,
,,,,,,,ahead_image_6_WHI.jpg,ahead,6,image,,,,,,,,,0,176,176,176,,,,,,,,,j,0.0514475869713,2018_May_08_1329,59.9839596433,Arrows_VVA_Direction,1234,Whi,
,,,,,,,ahead_image_1_WHI.jpg,ahead,1,image,,,,,,,,,0,177,177,177,,,,,,,,,f,0.000255707826,2018_May_08_1329,59.9839596433,Arrows_VVA_Direction,1234,Whi,
,,,,,,,left_image_7_WHI.jpg,left,7,image,,,,,,,,,0,178,178,178,,,,,,,,,j,0.0673263381468,2018_May_08_1329,59.9839596433,Arrows_VVA_Direction,1234,Whi,
,,,,,,,right_image_4_WHI.jpg,right,4,image,,,,,,,,,0,179,179,179,,,,,,,,,f,0.0344634993235,2018_May_08_1329,59.9839596433,Arrows_VVA_Direction,1234,Whi,
,,,,,,,ahead_image_13_WHI.jpg,ahead,13,image,,,,,,,,,0,180,180,180,,,,,,,,,j,0.0335784694762,2018_May_08_1329,59.9839596433,Arrows_VVA_Direction,1234,Whi,
,,,,,,,ahead_image_20_WHI.jpg,ahead,20,image,,,,,,,,,0,181,181,181,,,,,,,,,f,0.000226158008445,2018_May_08_1329,59.9839596433,Arrows_VVA_Direction,1234,Whi,
,,,,,,,left_image_4_WHI.jpg,left,4,image,,,,,,,,,0,182,182,182,,,,,,,,,j,0.0846764330636,2018_May_08_1329,59.9839596433,Arrows_VVA_Direction,1234,Whi,
,,,,,,,right_image_19_WHI.jpg,right,19,image,,,,,,,,,0,183,183,183,,,,,,,,,f,0.000354597053956,2018_May_08_1329,59.9839596433,Arrows_VVA_Direction,1234,Whi,
,,,,,,,ahead_image_17_WHI.jpg,ahead,17,image,,,,,,,,,0,184,184,184,,,,,,,,,j,0.0675457670004,2018_May_08_1329,59.9839596433,Arrows_VVA_Direction,1234,Whi,
,,,,,,,ahead_image_16_WHI.jpg,ahead,16,image,,,,,,,,,0,185,185,185,,,,,,,,,f,0.0177538441494,2018_May_08_1329,59.9839596433,Arrows_VVA_Direction,1234,Whi,
,,,,,,,ahead_image_15_WHI.jpg,ahead,15,image,,,,,,,,,0,186,186,186,,,,,,,,,j,0.0844672442763,2018_May_08_1329,59.9839596433,Arrows_VVA_Direction,1234,Whi,
,,,,,,,right_image_6_WHI.jpg,right,6,image,,,,,,,,,0,187,187,187,,,,,,,,,f,0.0170402613585,2018_May_08_1329,59.9839596433,Arrows_VVA_Direction,1234,Whi,
,,,,,,,left_image_6_WHI.jpg,left,6,image,,,,,,,,,0,188,188,188,,,,,,,,,j,0.0673535473179,2018_May_08_1329,59.9839596433,Arrows_VVA_Direction,1234,Whi,
