color,answer,repeat_color_practice.thisRepN,repeat_color_practice.thisTrialN,repeat_color_practice.thisN,repeat_color_practice.thisIndex,trials_3.thisRepN,trials_3.thisTrialN,trials_3.thisN,trials_3.thisIndex,trials_2.thisRepN,trials_2.thisTrialN,trials_2.thisN,trials_2.thisIndex,key_resp_7.keys,key_resp_7.rt,key_resp_8.keys,key_resp_8.rt,key_resp_9.keys,key_resp_9.rt,key_resp_6.keys,key_resp_6.rt,key_resp_11.keys,key_resp_11.rt,colorpractice_numVertices,colorpractice_correct,key_resp_13.keys,key_resp_13.rt,color_response.keys,color_response.rt,date,frameRate,expName,participant,
,,,,,,,,,,,,,,f,9.87724842556,,,,,,,,,,,,,,,2018_Oct_02_1041,60.1936925684,Arrows_VVA_Color,1002,
,,,,,,,,,,,,,,,,f,8.16361134997,,,,,,,,,,,,,2018_Oct_02_1041,60.1936925684,Arrows_VVA_Color,1002,
,,,,,,,,,,,,,,,,,,f,8.28053193346,,,,,,,,,,,2018_Oct_02_1041,60.1936925684,Arrows_VVA_Color,1002,
#fdae61,o,0,0,0,0,0,0,0,3,,,,,,,,,,,d,30.5522912756,f,3.96580478787,3,,,,,,2018_Oct_02_1041,60.1936925684,Arrows_VVA_Color,1002,
#d7191c,r,0,0,0,0,0,1,1,1,,,,,,,,,,,,,a,1.95027169196,999,0,,,,,2018_Oct_02_1041,60.1936925684,Arrows_VVA_Color,1002,
#2c7bb6,b,0,0,0,0,0,2,2,7,,,,,,,,,,,,,f,7.66384763295,3,,,,,,2018_Oct_02_1041,60.1936925684,Arrows_VVA_Color,1002,
#fdae61,o,0,0,0,0,0,3,3,5,,,,,,,,,,,,,a,2.00027086642,6,0,,,,,2018_Oct_02_1041,60.1936925684,Arrows_VVA_Color,1002,
#2c7bb6,b,0,0,0,0,0,4,4,8,,,,,,,,,,,,,f,1.15080744521,999,,,,,,2018_Oct_02_1041,60.1936925684,Arrows_VVA_Color,1002,
#d7191c,r,0,0,0,0,0,5,5,2,,,,,,,,,,,,,a,1.10146245555,3,0,,,,,2018_Oct_02_1041,60.1936925684,Arrows_VVA_Color,1002,
#d7191c,r,0,0,0,0,0,6,6,0,,,,,,,,,,,,,f,1.16721025883,4,,,,,,2018_Oct_02_1041,60.1936925684,Arrows_VVA_Color,1002,
#2c7bb6,b,0,0,0,0,0,7,7,6,,,,,,,,,,,,,a,1.03478603115,999,0,,,,,2018_Oct_02_1041,60.1936925684,Arrows_VVA_Color,1002,
#fdae61,o,0,0,0,0,0,8,8,4,,,,,,,,,,,,,f,1.05133878071,3,,,,,,2018_Oct_02_1041,60.1936925684,Arrows_VVA_Color,1002,
#d7191c,r,0,0,0,0,1,0,9,1,,,,,,,,,,,,,a,0.934278524755,5,0,,,,,2018_Oct_02_1041,60.1936925684,Arrows_VVA_Color,1002,
#d7191c,r,0,0,0,0,1,1,10,2,,,,,,,,,,,,,f,0.951916971187,999,,,,,,2018_Oct_02_1041,60.1936925684,Arrows_VVA_Color,1002,
#d7191c,r,0,0,0,0,1,2,11,0,,,,,,,,,,,,,f,1.06686919919,6,0,,,,,2018_Oct_02_1041,60.1936925684,Arrows_VVA_Color,1002,
#2c7bb6,b,0,0,0,0,1,3,12,7,,,,,,,,,,,,,f,0.967382685165,3,,,,,,2018_Oct_02_1041,60.1936925684,Arrows_VVA_Color,1002,
#fdae61,o,0,0,0,0,1,4,13,5,,,,,,,,,,,,,a,1.33424826982,999,0,,,,,2018_Oct_02_1041,60.1936925684,Arrows_VVA_Color,1002,
#2c7bb6,b,0,0,0,0,1,5,14,8,,,,,,,,,,,,,f,1.1006311143,3,,,,,,2018_Oct_02_1041,60.1936925684,Arrows_VVA_Color,1002,
#fdae61,o,0,0,0,0,1,6,15,4,,,,,,,,,,,,,a,1.10108092212,6,0,,,,,2018_Oct_02_1041,60.1936925684,Arrows_VVA_Color,1002,
#2c7bb6,b,0,0,0,0,1,7,16,6,,,,,,,,,,,,,f,1.03378021087,5,,,,,,2018_Oct_02_1041,60.1936925684,Arrows_VVA_Color,1002,
#fdae61,o,0,0,0,0,1,8,17,3,,,,,,,,,,,,,a,1.00099555681,999,0,,,,,2018_Oct_02_1041,60.1936925684,Arrows_VVA_Color,1002,
#fdae61,o,1,0,1,0,0,0,0,4,,,,,,,,,,,d,6.74763995918,f,1.45052850189,3,,,,,,2018_Oct_02_1041,60.1936925684,Arrows_VVA_Color,1002,
#fdae61,o,1,0,1,0,0,1,1,3,,,,,,,,,,,,,f,0.917879727277,999,0,,,,,2018_Oct_02_1041,60.1936925684,Arrows_VVA_Color,1002,
#2c7bb6,b,1,0,1,0,0,2,2,8,,,,,,,,,,,,,f,1.26784717422,3,,,,,,2018_Oct_02_1041,60.1936925684,Arrows_VVA_Color,1002,
#fdae61,o,1,0,1,0,0,3,3,5,,,,,,,,,,,,,a,1.13405835096,5,0,,,,,2018_Oct_02_1041,60.1936925684,Arrows_VVA_Color,1002,
#d7191c,r,1,0,1,0,0,4,4,2,,,,,,,,,,,,,f,1.1179103392,4,,,,,,2018_Oct_02_1041,60.1936925684,Arrows_VVA_Color,1002,
#d7191c,r,1,0,1,0,0,5,5,1,,,,,,,,,,,,,f,1.08471068387,6,0,,,,,2018_Oct_02_1041,60.1936925684,Arrows_VVA_Color,1002,
#d7191c,r,1,0,1,0,0,6,6,0,,,,,,,,,,,,,f,1.0178004308,5,,,,,,2018_Oct_02_1041,60.1936925684,Arrows_VVA_Color,1002,
#2c7bb6,b,1,0,1,0,0,7,7,6,,,,,,,,,,,,,a,1.00091344903,3,0,,,,,2018_Oct_02_1041,60.1936925684,Arrows_VVA_Color,1002,
#2c7bb6,b,1,0,1,0,0,8,8,7,,,,,,,,,,,,,f,0.984678867109,5,,,,,,2018_Oct_02_1041,60.1936925684,Arrows_VVA_Color,1002,
#2c7bb6,b,1,0,1,0,1,0,9,6,,,,,,,,,,,,,f,1.00133916001,3,0,,,,,2018_Oct_02_1041,60.1936925684,Arrows_VVA_Color,1002,
#d7191c,r,1,0,1,0,1,1,10,0,,,,,,,,,,,,,f,0.984008171509,6,,,,,,2018_Oct_02_1041,60.1936925684,Arrows_VVA_Color,1002,
#fdae61,o,1,0,1,0,1,2,11,4,,,,,,,,,,,,,a,1.13390306017,3,0,,,,,2018_Oct_02_1041,60.1936925684,Arrows_VVA_Color,1002,
#2c7bb6,b,1,0,1,0,1,3,12,8,,,,,,,,,,,,,f,0.850567860071,4,,,,,,2018_Oct_02_1041,60.1936925684,Arrows_VVA_Color,1002,
#d7191c,r,1,0,1,0,1,4,13,2,,,,,,,,,,,,,a,1.01742826837,5,0,,,,,2018_Oct_02_1041,60.1936925684,Arrows_VVA_Color,1002,
#2c7bb6,b,1,0,1,0,1,5,14,7,,,,,,,,,,,,,f,1.01787406006,999,,,,,,2018_Oct_02_1041,60.1936925684,Arrows_VVA_Color,1002,
#fdae61,o,1,0,1,0,1,6,15,5,,,,,,,,,,,,,a,1.01753045685,6,0,,,,,2018_Oct_02_1041,60.1936925684,Arrows_VVA_Color,1002,
#d7191c,r,1,0,1,0,1,7,16,1,,,,,,,,,,,,,f,1.03412649149,999,,,,,,2018_Oct_02_1041,60.1936925684,Arrows_VVA_Color,1002,
#fdae61,o,1,0,1,0,1,8,17,3,,,,,,,,,,,,,a,0.984658786402,5,0,,,,,2018_Oct_02_1041,60.1936925684,Arrows_VVA_Color,1002,
,,,,,,,,,,,,,,,,,,,,,,,,,,d,17.3087457725,,,2018_Oct_02_1041,60.1936925684,Arrows_VVA_Color,1002,
#fdae61,o,,,,,,,,,0,0,0,28,,,,,,,,,,,3,,,,f,1.63464626943,2018_Oct_02_1041,60.1936925684,Arrows_VVA_Color,1002,
#d7191c,r,,,,,,,,,0,1,1,19,,,,,,,,,,,999,0,,,a,1.1004334309,2018_Oct_02_1041,60.1936925684,Arrows_VVA_Color,1002,
#2c7bb6,b,,,,,,,,,0,2,2,51,,,,,,,,,,,5,,,,f,1.13363085503,2018_Oct_02_1041,60.1936925684,Arrows_VVA_Color,1002,
#fdae61,o,,,,,,,,,0,3,3,34,,,,,,,,,,,999,0,,,a,0.934058083221,2018_Oct_02_1041,60.1936925684,Arrows_VVA_Color,1002,
#d7191c,r,,,,,,,,,0,4,4,0,,,,,,,,,,,5,,,,f,0.967632132165,2018_Oct_02_1041,60.1936925684,Arrows_VVA_Color,1002,
#2c7bb6,b,,,,,,,,,0,5,5,62,,,,,,,,,,,999,0,,,a,1.00087864247,2018_Oct_02_1041,60.1936925684,Arrows_VVA_Color,1002,
#d7191c,r,,,,,,,,,0,6,6,9,,,,,,,,,,,5,,,,f,1.11725169202,2018_Oct_02_1041,60.1936925684,Arrows_VVA_Color,1002,
#2c7bb6,b,,,,,,,,,0,7,7,47,,,,,,,,,,,4,0,,,a,0.935185280217,2018_Oct_02_1041,60.1936925684,Arrows_VVA_Color,1002,
#fdae61,o,,,,,,,,,0,8,8,26,,,,,,,,,,,5,,,,f,1.15011666891,2018_Oct_02_1041,60.1936925684,Arrows_VVA_Color,1002,
#d7191c,r,,,,,,,,,0,9,9,1,,,,,,,,,,,999,0,,,a,0.984056365205,2018_Oct_02_1041,60.1936925684,Arrows_VVA_Color,1002,
#2c7bb6,b,,,,,,,,,0,10,10,45,,,,,,,,,,,4,,,,f,1.00097056749,2018_Oct_02_1041,60.1936925684,Arrows_VVA_Color,1002,
#d7191c,r,,,,,,,,,0,11,11,20,,,,,,,,,,,5,0,,,a,1.05058642357,2018_Oct_02_1041,60.1936925684,Arrows_VVA_Color,1002,
#2c7bb6,b,,,,,,,,,0,12,12,59,,,,,,,,,,,6,,,,f,1.0674247654,2018_Oct_02_1041,60.1936925684,Arrows_VVA_Color,1002,
#fdae61,o,,,,,,,,,0,13,13,22,,,,,,,,,,,4,0,,,a,1.13456259982,2018_Oct_02_1041,60.1936925684,Arrows_VVA_Color,1002,
#d7191c,r,,,,,,,,,0,14,14,2,,,,,,,,,,,3,,,,f,1.13373839837,2018_Oct_02_1041,60.1936925684,Arrows_VVA_Color,1002,
#2c7bb6,b,,,,,,,,,0,15,15,53,,,,,,,,,,,5,0,,,a,1.03754065785,2018_Oct_02_1041,60.1936925684,Arrows_VVA_Color,1002,
#2c7bb6,b,,,,,,,,,0,16,16,49,,,,,,,,,,,4,,,,f,1.00023338243,2018_Oct_02_1041,60.1936925684,Arrows_VVA_Color,1002,
#d7191c,r,,,,,,,,,0,17,17,18,,,,,,,,,,,3,0,,,a,1.00125392857,2018_Oct_02_1041,60.1936925684,Arrows_VVA_Color,1002,
#d7191c,r,,,,,,,,,0,18,18,16,,,,,,,,,,,6,,,,f,0.934596692395,2018_Oct_02_1041,60.1936925684,Arrows_VVA_Color,1002,
#d7191c,r,,,,,,,,,0,19,19,5,,,,,,,,,,,5,0,,,f,1.53421016111,2018_Oct_02_1041,60.1936925684,Arrows_VVA_Color,1002,
#2c7bb6,b,,,,,,,,,0,20,20,55,,,,,,,,,,,999,,,,f,12.5611254477,2018_Oct_02_1041,60.1936925684,Arrows_VVA_Color,1002,
#2c7bb6,b,,,,,,,,,0,21,21,43,,,,,,,,,,,4,0,,,f,1.30055105921,2018_Oct_02_1041,60.1936925684,Arrows_VVA_Color,1002,
#2c7bb6,b,,,,,,,,,0,22,22,56,,,,,,,,,,,5,,,,f,1.13320112791,2018_Oct_02_1041,60.1936925684,Arrows_VVA_Color,1002,
#fdae61,o,,,,,,,,,0,23,23,31,,,,,,,,,,,6,0,,,a,1.28420134791,2018_Oct_02_1041,60.1936925684,Arrows_VVA_Color,1002,
#fdae61,o,,,,,,,,,0,24,24,24,,,,,,,,,,,3,,,,f,0.934421767129,2018_Oct_02_1041,60.1936925684,Arrows_VVA_Color,1002,
#d7191c,r,,,,,,,,,0,25,25,4,,,,,,,,,,,5,0,,,a,1.20029612349,2018_Oct_02_1041,60.1936925684,Arrows_VVA_Color,1002,
#d7191c,r,,,,,,,,,0,26,26,14,,,,,,,,,,,4,,,,f,0.967489782267,2018_Oct_02_1041,60.1936925684,Arrows_VVA_Color,1002,
#fdae61,o,,,,,,,,,0,27,27,25,,,,,,,,,,,3,0,,,a,1.2178060534,2018_Oct_02_1041,60.1936925684,Arrows_VVA_Color,1002,
#2c7bb6,b,,,,,,,,,0,28,28,44,,,,,,,,,,,999,,,,f,0.967886041544,2018_Oct_02_1041,60.1936925684,Arrows_VVA_Color,1002,
#2c7bb6,b,,,,,,,,,0,29,29,42,,,,,,,,,,,3,0,,,f,1.11697145461,2018_Oct_02_1041,60.1936925684,Arrows_VVA_Color,1002,
#fdae61,o,,,,,,,,,0,30,30,37,,,,,,,,,,,6,,,,f,0.967093969228,2018_Oct_02_1041,60.1936925684,Arrows_VVA_Color,1002,
#fdae61,o,,,,,,,,,0,31,31,27,,,,,,,,,,,5,0,,,f,0.936054997932,2018_Oct_02_1041,60.1936925684,Arrows_VVA_Color,1002,
#d7191c,r,,,,,,,,,0,32,32,12,,,,,,,,,,,3,,,,f,0.934563670789,2018_Oct_02_1041,60.1936925684,Arrows_VVA_Color,1002,
#2c7bb6,b,,,,,,,,,0,33,33,54,,,,,,,,,,,999,0,,,a,0.967812412286,2018_Oct_02_1041,60.1936925684,Arrows_VVA_Color,1002,
#d7191c,r,,,,,,,,,0,34,34,10,,,,,,,,,,,6,,,,f,1.0841979565,2018_Oct_02_1041,60.1936925684,Arrows_VVA_Color,1002,
#2c7bb6,b,,,,,,,,,0,35,35,48,,,,,,,,,,,3,0,,,a,1.83358806082,2018_Oct_02_1041,60.1936925684,Arrows_VVA_Color,1002,
#fdae61,o,,,,,,,,,0,36,36,39,,,,,,,,,,,4,,,,f,1.10022057541,2018_Oct_02_1041,60.1936925684,Arrows_VVA_Color,1002,
#2c7bb6,b,,,,,,,,,0,37,37,46,,,,,,,,,,,5,0,,,a,0.967516110305,2018_Oct_02_1041,60.1936925684,Arrows_VVA_Color,1002,
#d7191c,r,,,,,,,,,0,38,38,8,,,,,,,,,,,3,,,,f,1.15033532549,2018_Oct_02_1041,60.1936925684,Arrows_VVA_Color,1002,
#fdae61,o,,,,,,,,,0,39,39,33,,,,,,,,,,,6,0,,,a,1.03467893404,2018_Oct_02_1041,60.1936925684,Arrows_VVA_Color,1002,
#d7191c,r,,,,,,,,,0,40,40,3,,,,,,,,,,,5,,,,f,9.09638739164,2018_Oct_02_1041,60.1936925684,Arrows_VVA_Color,1002,
#2c7bb6,b,,,,,,,,,0,41,41,50,,,,,,,,,,,6,0,,,a,1.05126292026,2018_Oct_02_1041,60.1936925684,Arrows_VVA_Color,1002,
#d7191c,r,,,,,,,,,0,42,42,11,,,,,,,,,,,4,,,,f,1.18357514223,2018_Oct_02_1041,60.1936925684,Arrows_VVA_Color,1002,
#fdae61,o,,,,,,,,,0,43,43,30,,,,,,,,,,,6,0,,,a,1.03428356724,2018_Oct_02_1041,60.1936925684,Arrows_VVA_Color,1002,
#2c7bb6,b,,,,,,,,,0,44,44,61,,,,,,,,,,,5,,,,f,1.06736139962,2018_Oct_02_1041,60.1936925684,Arrows_VVA_Color,1002,
#d7191c,r,,,,,,,,,0,45,45,7,,,,,,,,,,,6,0,,,a,1.08406319264,2018_Oct_02_1041,60.1936925684,Arrows_VVA_Color,1002,
#fdae61,o,,,,,,,,,0,46,46,35,,,,,,,,,,,4,,,,f,0.983968010096,2018_Oct_02_1041,60.1936925684,Arrows_VVA_Color,1002,
#fdae61,o,,,,,,,,,0,47,47,40,,,,,,,,,,,999,0,,,f,1.08459555449,2018_Oct_02_1041,60.1936925684,Arrows_VVA_Color,1002,
#fdae61,o,,,,,,,,,0,48,48,38,,,,,,,,,,,4,,,,f,1.01746842978,2018_Oct_02_1041,60.1936925684,Arrows_VVA_Color,1002,
#d7191c,r,,,,,,,,,0,49,49,6,,,,,,,,,,,5,0,,,a,1.16788854048,2018_Oct_02_1041,60.1936925684,Arrows_VVA_Color,1002,
#d7191c,r,,,,,,,,,0,50,50,15,,,,,,,,,,,999,,,,f,0.884745668926,2018_Oct_02_1041,60.1936925684,Arrows_VVA_Color,1002,
#fdae61,o,,,,,,,,,0,51,51,29,,,,,,,,,,,4,0,,,a,1.00038108719,2018_Oct_02_1041,60.1936925684,Arrows_VVA_Color,1002,
#2c7bb6,b,,,,,,,,,0,52,52,52,,,,,,,,,,,999,,,,f,0.934458804877,2018_Oct_02_1041,60.1936925684,Arrows_VVA_Color,1002,
#d7191c,r,,,,,,,,,0,53,53,13,,,,,,,,,,,5,0,,,a,1.08473611943,2018_Oct_02_1041,60.1936925684,Arrows_VVA_Color,1002,
#fdae61,o,,,,,,,,,0,54,54,32,,,,,,,,,,,6,,,,f,1.03402117934,2018_Oct_02_1041,60.1936925684,Arrows_VVA_Color,1002,
#2c7bb6,b,,,,,,,,,0,55,55,58,,,,,,,,,,,999,0,,,a,0.984423172778,2018_Oct_02_1041,60.1936925684,Arrows_VVA_Color,1002,
#fdae61,o,,,,,,,,,0,56,56,41,,,,,,,,,,,3,,,,f,0.983187093728,2018_Oct_02_1041,60.1936925684,Arrows_VVA_Color,1002,
#2c7bb6,b,,,,,,,,,0,57,57,60,,,,,,,,,,,5,0,,,a,0.917848490623,2018_Oct_02_1041,60.1936925684,Arrows_VVA_Color,1002,
#fdae61,o,,,,,,,,,0,58,58,21,,,,,,,,,,,4,,,,f,0.88402677963,2018_Oct_02_1041,60.1936925684,Arrows_VVA_Color,1002,
#fdae61,o,,,,,,,,,0,59,59,23,,,,,,,,,,,999,0,,,f,1.01710965449,2018_Oct_02_1041,60.1936925684,Arrows_VVA_Color,1002,
#fdae61,o,,,,,,,,,0,60,60,36,,,,,,,,,,,4,,,,f,2.16675955853,2018_Oct_02_1041,60.1936925684,Arrows_VVA_Color,1002,
#2c7bb6,b,,,,,,,,,0,61,61,57,,,,,,,,,,,999,0,,,a,0.967299684911,2018_Oct_02_1041,60.1936925684,Arrows_VVA_Color,1002,
#d7191c,r,,,,,,,,,0,62,62,17,,,,,,,,,,,5,,,,f,1.24958577965,2018_Oct_02_1041,60.1936925684,Arrows_VVA_Color,1002,
#2c7bb6,b,,,,,,,,,1,0,63,57,,,,,,,,,,,6,0,,,a,1.01722478388,2018_Oct_02_1041,60.1936925684,Arrows_VVA_Color,1002,
#fdae61,o,,,,,,,,,1,1,64,31,,,,,,,,,,,3,,,,f,1.10127905176,2018_Oct_02_1041,60.1936925684,Arrows_VVA_Color,1002,
#2c7bb6,b,,,,,,,,,1,2,65,53,,,,,,,,,,,5,0,,,a,1.01785754925,2018_Oct_02_1041,60.1936925684,Arrows_VVA_Color,1002,
#2c7bb6,b,,,,,,,,,1,3,66,46,,,,,,,,,,,999,,,,f,1.00139136985,2018_Oct_02_1041,60.1936925684,Arrows_VVA_Color,1002,
#d7191c,r,,,,,,,,,1,4,67,20,,,,,,,,,,,3,0,,,a,0.851144845706,2018_Oct_02_1041,60.1936925684,Arrows_VVA_Color,1002,
#fdae61,o,,,,,,,,,1,5,68,40,,,,,,,,,,,999,,,,f,0.750448134435,2018_Oct_02_1041,60.1936925684,Arrows_VVA_Color,1002,
#fdae61,o,,,,,,,,,1,6,69,34,,,,,,,,,,,4,0,,,f,0.884175823097,2018_Oct_02_1041,60.1936925684,Arrows_VVA_Color,1002,
#2c7bb6,b,,,,,,,,,1,7,70,45,,,,,,,,,,,6,,,,f,1.18448279017,2018_Oct_02_1041,60.1936925684,Arrows_VVA_Color,1002,
#d7191c,r,,,,,,,,,1,8,71,7,,,,,,,,,,,999,0,,,a,0.88456003395,2018_Oct_02_1041,60.1936925684,Arrows_VVA_Color,1002,
#fdae61,o,,,,,,,,,1,9,72,27,,,,,,,,,,,3,,,,f,0.918063577302,2018_Oct_02_1041,60.1936925684,Arrows_VVA_Color,1002,
#d7191c,r,,,,,,,,,1,10,73,6,,,,,,,,,,,999,0,,,a,0.801165305715,2018_Oct_02_1041,60.1936925684,Arrows_VVA_Color,1002,
#d7191c,r,,,,,,,,,1,11,74,17,,,,,,,,,,,4,,,,f,0.934251304242,2018_Oct_02_1041,60.1936925684,Arrows_VVA_Color,1002,
#2c7bb6,b,,,,,,,,,1,12,75,56,,,,,,,,,,,6,0,,,a,0.867410664283,2018_Oct_02_1041,60.1936925684,Arrows_VVA_Color,1002,
#2c7bb6,b,,,,,,,,,1,13,76,47,,,,,,,,,,,999,,,,f,1.20088203388,2018_Oct_02_1041,60.1936925684,Arrows_VVA_Color,1002,
#fdae61,o,,,,,,,,,1,14,77,30,,,,,,,,,,,3,0,,,a,0.918209497103,2018_Oct_02_1041,60.1936925684,Arrows_VVA_Color,1002,
#d7191c,r,,,,,,,,,1,15,78,16,,,,,,,,,,,4,,,,f,0.984218795809,2018_Oct_02_1041,60.1936925684,Arrows_VVA_Color,1002,
#2c7bb6,b,,,,,,,,,1,16,79,58,,,,,,,,,,,999,0,,,a,0.684759234559,2018_Oct_02_1041,60.1936925684,Arrows_VVA_Color,1002,
#fdae61,o,,,,,,,,,1,17,80,37,,,,,,,,,,,5,,,,f,3.33323441726,2018_Oct_02_1041,60.1936925684,Arrows_VVA_Color,1002,
#2c7bb6,b,,,,,,,,,1,18,81,61,,,,,,,,,,,4,0,,,a,0.967463900468,2018_Oct_02_1041,60.1936925684,Arrows_VVA_Color,1002,
#d7191c,r,,,,,,,,,1,19,82,15,,,,,,,,,,,999,,,,f,0.784860218201,2018_Oct_02_1041,60.1936925684,Arrows_VVA_Color,1002,
#2c7bb6,b,,,,,,,,,1,20,83,48,,,,,,,,,,,4,0,,,a,0.850863269576,2018_Oct_02_1041,60.1936925684,Arrows_VVA_Color,1002,
#2c7bb6,b,,,,,,,,,1,21,84,54,,,,,,,,,,,999,,,,f,0.817615866793,2018_Oct_02_1041,60.1936925684,Arrows_VVA_Color,1002,
#fdae61,o,,,,,,,,,1,22,85,33,,,,,,,,,,,4,0,,,a,0.98410679009,2018_Oct_02_1041,60.1936925684,Arrows_VVA_Color,1002,
#2c7bb6,b,,,,,,,,,1,23,86,42,,,,,,,,,,,6,,,,f,0.9671689372,2018_Oct_02_1041,60.1936925684,Arrows_VVA_Color,1002,
#2c7bb6,b,,,,,,,,,1,24,87,51,,,,,,,,,,,999,0,,,f,1.20107480866,2018_Oct_02_1041,60.1936925684,Arrows_VVA_Color,1002,
#d7191c,r,,,,,,,,,1,25,88,14,,,,,,,,,,,6,,,,f,1.06722038843,2018_Oct_02_1041,60.1936925684,Arrows_VVA_Color,1002,
#fdae61,o,,,,,,,,,1,26,89,28,,,,,,,,,,,4,0,,,a,0.884250791068,2018_Oct_02_1041,60.1936925684,Arrows_VVA_Color,1002,
#d7191c,r,,,,,,,,,1,27,90,3,,,,,,,,,,,5,,,,f,0.933162929945,2018_Oct_02_1041,60.1936925684,Arrows_VVA_Color,1002,
#fdae61,o,,,,,,,,,1,28,91,23,,,,,,,,,,,4,0,,,a,1.28391441692,2018_Oct_02_1041,60.1936925684,Arrows_VVA_Color,1002,
#fdae61,o,,,,,,,,,1,29,92,39,,,,,,,,,,,6,,,,f,0.883973231079,2018_Oct_02_1041,60.1936925684,Arrows_VVA_Color,1002,
#d7191c,r,,,,,,,,,1,30,93,0,,,,,,,,,,,4,0,,,a,2.36721186529,2018_Oct_02_1041,60.1936925684,Arrows_VVA_Color,1002,
#2c7bb6,b,,,,,,,,,1,31,94,52,,,,,,,,,,,999,,,,f,1.01726539153,2018_Oct_02_1041,60.1936925684,Arrows_VVA_Color,1002,
#d7191c,r,,,,,,,,,1,32,95,11,,,,,,,,,,,5,0,,,a,1.13445594895,2018_Oct_02_1041,60.1936925684,Arrows_VVA_Color,1002,
#d7191c,r,,,,,,,,,1,33,96,19,,,,,,,,,,,6,,,,f,0.950929892898,2018_Oct_02_1041,60.1936925684,Arrows_VVA_Color,1002,
#fdae61,o,,,,,,,,,1,34,97,24,,,,,,,,,,,4,0,,,a,1.10067796928,2018_Oct_02_1041,60.1936925684,Arrows_VVA_Color,1002,
#d7191c,r,,,,,,,,,1,35,98,8,,,,,,,,,,,3,,,,f,0.951175769995,2018_Oct_02_1041,60.1936925684,Arrows_VVA_Color,1002,
#2c7bb6,b,,,,,,,,,1,36,99,50,,,,,,,,,,,4,0,,,a,0.93399159377,2018_Oct_02_1041,60.1936925684,Arrows_VVA_Color,1002,
#2c7bb6,b,,,,,,,,,1,37,100,55,,,,,,,,,,,6,,,,f,2.76640515637,2018_Oct_02_1041,60.1936925684,Arrows_VVA_Color,1002,
#d7191c,r,,,,,,,,,1,38,101,1,,,,,,,,,,,5,0,,,a,1.56701534211,2018_Oct_02_1041,60.1936925684,Arrows_VVA_Color,1002,
#d7191c,r,,,,,,,,,1,39,102,12,,,,,,,,,,,3,,,,f,1.16745033483,2018_Oct_02_1041,60.1936925684,Arrows_VVA_Color,1002,
#fdae61,o,,,,,,,,,1,40,103,36,,,,,,,,,,,4,0,,,a,1.01742068232,2018_Oct_02_1041,60.1936925684,Arrows_VVA_Color,1002,
#2c7bb6,b,,,,,,,,,1,41,104,49,,,,,,,,,,,3,,,,f,1.1840713588,2018_Oct_02_1041,60.1936925684,Arrows_VVA_Color,1002,
#fdae61,o,,,,,,,,,1,42,105,29,,,,,,,,,,,4,0,,,a,1.0017626398,2018_Oct_02_1041,60.1936925684,Arrows_VVA_Color,1002,
#2c7bb6,b,,,,,,,,,1,43,106,44,,,,,,,,,,,5,,,,f,1.1341658943,2018_Oct_02_1041,60.1936925684,Arrows_VVA_Color,1002,
#fdae61,o,,,,,,,,,1,44,107,32,,,,,,,,,,,4,0,,,a,0.967313964525,2018_Oct_02_1041,60.1936925684,Arrows_VVA_Color,1002,
#d7191c,r,,,,,,,,,1,45,108,9,,,,,,,,,,,5,,,,f,0.884833131559,2018_Oct_02_1041,60.1936925684,Arrows_VVA_Color,1002,
#d7191c,r,,,,,,,,,1,46,109,18,,,,,,,,,,,999,0,,,f,1.05057169772,2018_Oct_02_1041,60.1936925684,Arrows_VVA_Color,1002,
#d7191c,r,,,,,,,,,1,47,110,4,,,,,,,,,,,6,,,,f,0.834173524972,2018_Oct_02_1041,60.1936925684,Arrows_VVA_Color,1002,
#fdae61,o,,,,,,,,,1,48,111,21,,,,,,,,,,,5,0,,,a,0.718192718557,2018_Oct_02_1041,60.1936925684,Arrows_VVA_Color,1002,
#d7191c,r,,,,,,,,,1,49,112,13,,,,,,,,,,,999,,,,f,0.901461741568,2018_Oct_02_1041,60.1936925684,Arrows_VVA_Color,1002,
#fdae61,o,,,,,,,,,1,50,113,22,,,,,,,,,,,4,0,,,a,0.884526119868,2018_Oct_02_1041,60.1936925684,Arrows_VVA_Color,1002,
#2c7bb6,b,,,,,,,,,1,51,114,59,,,,,,,,,,,999,,,,f,1.30021504206,2018_Oct_02_1041,60.1936925684,Arrows_VVA_Color,1002,
#2c7bb6,b,,,,,,,,,1,52,115,60,,,,,,,,,,,5,0,,,f,1.01762015068,2018_Oct_02_1041,60.1936925684,Arrows_VVA_Color,1002,
#fdae61,o,,,,,,,,,1,53,116,38,,,,,,,,,,,6,,,,f,1.03430811033,2018_Oct_02_1041,60.1936925684,Arrows_VVA_Color,1002,
#fdae61,o,,,,,,,,,1,54,117,41,,,,,,,,,,,5,0,,,f,1.2001479725,2018_Oct_02_1041,60.1936925684,Arrows_VVA_Color,1002,
#2c7bb6,b,,,,,,,,,1,55,118,62,,,,,,,,,,,6,,,,f,0.967400534682,2018_Oct_02_1041,60.1936925684,Arrows_VVA_Color,1002,
#fdae61,o,,,,,,,,,1,56,119,35,,,,,,,,,,,4,0,,,a,0.851125211238,2018_Oct_02_1041,60.1936925684,Arrows_VVA_Color,1002,
#d7191c,r,,,,,,,,,1,57,120,5,,,,,,,,,,,5,,,,f,4.04941504902,2018_Oct_02_1041,60.1936925684,Arrows_VVA_Color,1002,
#fdae61,o,,,,,,,,,1,58,121,26,,,,,,,,,,,4,0,,,a,1.00124321886,2018_Oct_02_1041,60.1936925684,Arrows_VVA_Color,1002,
#d7191c,r,,,,,,,,,1,59,122,2,,,,,,,,,,,6,,,,f,1.01705387475,2018_Oct_02_1041,60.1936925684,Arrows_VVA_Color,1002,
#fdae61,o,,,,,,,,,1,60,123,25,,,,,,,,,,,5,0,,,a,0.984205408671,2018_Oct_02_1041,60.1936925684,Arrows_VVA_Color,1002,
#2c7bb6,b,,,,,,,,,1,61,124,43,,,,,,,,,,,3,,,,f,1.15126082294,2018_Oct_02_1041,60.1936925684,Arrows_VVA_Color,1002,
#d7191c,r,,,,,,,,,1,62,125,10,,,,,,,,,,,999,0,,,a,0.967389378734,2018_Oct_02_1041,60.1936925684,Arrows_VVA_Color,1002,
