Stimulus_Practice,Direction,Number,Background,Format,Stimulus,direction,number,format,repeat_spatial_practice.thisRepN,repeat_spatial_practice.thisTrialN,repeat_spatial_practice.thisN,repeat_spatial_practice.thisIndex,trials.thisRepN,trials.thisTrialN,trials.thisN,trials.thisIndex,trials_3.thisRepN,trials_3.thisTrialN,trials_3.thisN,trials_3.thisIndex,trials_4.thisRepN,trials_4.thisTrialN,trials_4.thisN,trials_4.thisIndex,trials_2.thisRepN,trials_2.thisTrialN,trials_2.thisN,trials_2.thisIndex,key_resp_7.keys,key_resp_7.rt,key_resp_6.keys,key_resp_6.rt,key_resp_11.keys,key_resp_11.rt,key_resp_2.keys,key_resp_2.rt,key_resp_13.keys,key_resp_13.rt,direction_response.keys,direction_response.rt,date,frameRate,expName,participant,Scr or Whi,
,,,,,,,,,,,,,,,,,,,,,,,,,,,,,d,3.6140801188,,,,,,,,,,,2018_Jul_20_1137,59.8823435095,Arrows_VVA_Direction,1001,Whi,
ahead_schema_3_WHI.jpg,ahead,3,_WHI,schema,,,,,0,0,0,0,0,0,0,3,,,,,,,,,,,,,,,d,0.501445594215,f,0.617993196618,,,,,,,2018_Jul_20_1137,59.8823435095,Arrows_VVA_Direction,1001,Whi,
left_schema_2_WHI.jpg,left,2,_WHI,schema,,,,,0,0,0,0,0,1,1,8,,,,,,,,,,,,,,,,,a,0.451591670833,,,,,,,2018_Jul_20_1137,59.8823435095,Arrows_VVA_Direction,1001,Whi,
left_schema_1_WHI.jpg,left,1,_WHI,schema,,,,,0,0,0,0,0,2,2,6,,,,,,,,,,,,,,,,,f,0.234133158883,,,,,,,2018_Jul_20_1137,59.8823435095,Arrows_VVA_Direction,1001,Whi,
ahead_schema_2_WHI.jpg,ahead,2,_WHI,schema,,,,,0,0,0,0,0,3,3,0,,,,,,,,,,,,,,,,,a,0.284263750989,,,,,,,2018_Jul_20_1137,59.8823435095,Arrows_VVA_Direction,1001,Whi,
right_schema_2_WHI.jpg,right,2,_WHI,schema,,,,,0,0,0,0,0,4,4,7,,,,,,,,,,,,,,,,,f,0.201791921005,,,,,,,2018_Jul_20_1137,59.8823435095,Arrows_VVA_Direction,1001,Whi,
right_schema_3_WHI.jpg,right,3,_WHI,schema,,,,,0,0,0,0,0,5,5,2,,,,,,,,,,,,,,,,,a,0.218196592788,,,,,,,2018_Jul_20_1137,59.8823435095,Arrows_VVA_Direction,1001,Whi,
left_schema_3_WHI.jpg,left,3,_WHI,schema,,,,,0,0,0,0,0,6,6,5,,,,,,,,,,,,,,,,,f,0.184861578615,,,,,,,2018_Jul_20_1137,59.8823435095,Arrows_VVA_Direction,1001,Whi,
ahead_schema_1_WHI.jpg,ahead,1,_WHI,schema,,,,,0,0,0,0,0,7,7,4,,,,,,,,,,,,,,,,,a,0.21767270712,,,,,,,2018_Jul_20_1137,59.8823435095,Arrows_VVA_Direction,1001,Whi,
right_schema_1_WHI.jpg,right,1,_WHI,schema,,,,,0,0,0,0,0,8,8,1,,,,,,,,,,,,,,,,,f,0.234259891018,,,,,,,2018_Jul_20_1137,59.8823435095,Arrows_VVA_Direction,1001,Whi,
left_word_3_WHI.jpg,left,3,_WHI,word,,,,,0,0,0,0,,,,,0,0,0,2,,,,,,,,,,,,,a,0.449805818702,d,0.75103650376,,,,,2018_Jul_20_1137,59.8823435095,Arrows_VVA_Direction,1001,Whi,
ahead_word_2_WHI.jpg,ahead,2,_WHI,word,,,,,0,0,0,0,,,,,0,1,1,7,,,,,,,,,,,,,f,0.18395526534,,,,,,,2018_Jul_20_1137,59.8823435095,Arrows_VVA_Direction,1001,Whi,
right_word_1_WHI.jpg,right,1,_WHI,word,,,,,0,0,0,0,,,,,0,2,2,6,,,,,,,,,,,,,a,0.16817800689,,,,,,,2018_Jul_20_1137,59.8823435095,Arrows_VVA_Direction,1001,Whi,
left_word_2_WHI.jpg,left,2,_WHI,word,,,,,0,0,0,0,,,,,0,3,3,5,,,,,,,,,,,,,f,0.151573419629,,,,,,,2018_Jul_20_1137,59.8823435095,Arrows_VVA_Direction,1001,Whi,
ahead_word_1_WHI.jpg,ahead,1,_WHI,word,,,,,0,0,0,0,,,,,0,4,4,8,,,,,,,,,,,,,a,0.167893752063,,,,,,,2018_Jul_20_1137,59.8823435095,Arrows_VVA_Direction,1001,Whi,
right_word_3_WHI.jpg,right,3,_WHI,word,,,,,0,0,0,0,,,,,0,5,5,1,,,,,,,,,,,,,f,0.103038135218,,,,,,,2018_Jul_20_1137,59.8823435095,Arrows_VVA_Direction,1001,Whi,
right_word_2_WHI.jpg,right,2,_WHI,word,,,,,0,0,0,0,,,,,0,6,6,3,,,,,,,,,,,,,a,0.16828555071,,,,,,,2018_Jul_20_1137,59.8823435095,Arrows_VVA_Direction,1001,Whi,
ahead_word_3_WHI.jpg,ahead,3,_WHI,word,,,,,0,0,0,0,,,,,0,7,7,4,,,,,,,,,,,,,f,0.267901025771,,,,,,,2018_Jul_20_1137,59.8823435095,Arrows_VVA_Direction,1001,Whi,
left_word_1_WHI.jpg,left,1,_WHI,word,,,,,0,0,0,0,,,,,0,8,8,0,,,,,,,,,,,,,a,0.301438632872,,,,,,,2018_Jul_20_1137,59.8823435095,Arrows_VVA_Direction,1001,Whi,
ahead_image_1_WHI.jpg,ahead,1,_WHI,image,,,,,0,0,0,0,,,,,,,,,0,0,0,0,,,,,,,,,f,2.98317318528,d,2.90019531921,,,,,2018_Jul_20_1137,59.8823435095,Arrows_VVA_Direction,1001,Whi,
right_image_3_WHI.jpg,right,3,_WHI,image,,,,,0,0,0,0,,,,,,,,,0,1,1,4,,,,,,,,,a,2.99939311371,,,,,,,2018_Jul_20_1137,59.8823435095,Arrows_VVA_Direction,1001,Whi,
left_image_1_WHI.jpg,left,1,_WHI,image,,,,,0,0,0,0,,,,,,,,,0,2,2,3,,,,,,,,,f,3.74983254846,,,,,,,2018_Jul_20_1137,59.8823435095,Arrows_VVA_Direction,1001,Whi,
left_image_3_WHI.jpg,left,3,_WHI,image,,,,,0,0,0,0,,,,,,,,,0,3,3,2,,,,,,,,,f,3.71623469899,,,,,,,2018_Jul_20_1137,59.8823435095,Arrows_VVA_Direction,1001,Whi,
right_image_2_WHI.jpg,right,2,_WHI,image,,,,,0,0,0,0,,,,,,,,,0,4,4,7,,,,,,,,,a,3.89927249507,,,,,,,2018_Jul_20_1137,59.8823435095,Arrows_VVA_Direction,1001,Whi,
ahead_image_3_WHI.jpg,ahead,3,_WHI,image,,,,,0,0,0,0,,,,,,,,,0,5,5,6,,,,,,,,,a,2.83327628899,,,,,,,2018_Jul_20_1137,59.8823435095,Arrows_VVA_Direction,1001,Whi,
right_image_1_WHI.jpg,right,1,_WHI,image,,,,,0,0,0,0,,,,,,,,,0,6,6,5,,,,,,,,,f,2.1676617073,,,,,,,2018_Jul_20_1137,59.8823435095,Arrows_VVA_Direction,1001,Whi,
left_image_2_WHI.jpg,left,2,_WHI,image,,,,,0,0,0,0,,,,,,,,,0,7,7,8,,,,,,,,,a,4.08258294374,,,,,,,2018_Jul_20_1137,59.8823435095,Arrows_VVA_Direction,1001,Whi,
ahead_image_2_WHI.jpg,ahead,2,_WHI,image,,,,,0,0,0,0,,,,,,,,,0,8,8,1,,,,,,,,,a,2.63330681181,,,,,,,2018_Jul_20_1137,59.8823435095,Arrows_VVA_Direction,1001,Whi,
left_word_3_WHI.jpg,left,3,_WHI,word,,,,,1,0,1,0,0,0,0,2,,,,,,,,,,,,,,,d,8.67984517261,f,3.7663920655,,,,,,,2018_Jul_20_1137,59.8823435095,Arrows_VVA_Direction,1001,Whi,
right_word_1_WHI.jpg,right,1,_WHI,word,,,,,1,0,1,0,0,1,1,6,,,,,,,,,,,,,,,,,a,2.28349354089,,,,,,,2018_Jul_20_1137,59.8823435095,Arrows_VVA_Direction,1001,Whi,
right_word_2_WHI.jpg,right,2,_WHI,word,,,,,1,0,1,0,0,2,2,3,,,,,,,,,,,,,,,,,f,1.60096557392,,,,,,,2018_Jul_20_1137,59.8823435095,Arrows_VVA_Direction,1001,Whi,
ahead_word_1_WHI.jpg,ahead,1,_WHI,word,,,,,1,0,1,0,0,3,3,8,,,,,,,,,,,,,,,,,a,2.317163235,,,,,,,2018_Jul_20_1137,59.8823435095,Arrows_VVA_Direction,1001,Whi,
left_word_1_WHI.jpg,left,1,_WHI,word,,,,,1,0,1,0,0,4,4,0,,,,,,,,,,,,,,,,,a,1.7009188526,,,,,,,2018_Jul_20_1137,59.8823435095,Arrows_VVA_Direction,1001,Whi,
left_word_2_WHI.jpg,left,2,_WHI,word,,,,,1,0,1,0,0,5,5,5,,,,,,,,,,,,,,,,,f,1.40072567535,,,,,,,2018_Jul_20_1137,59.8823435095,Arrows_VVA_Direction,1001,Whi,
right_word_3_WHI.jpg,right,3,_WHI,word,,,,,1,0,1,0,0,6,6,1,,,,,,,,,,,,,,,,,a,1.2173549843,,,,,,,2018_Jul_20_1137,59.8823435095,Arrows_VVA_Direction,1001,Whi,
ahead_word_3_WHI.jpg,ahead,3,_WHI,word,,,,,1,0,1,0,0,7,7,4,,,,,,,,,,,,,,,,,a,1.66708226477,,,,,,,2018_Jul_20_1137,59.8823435095,Arrows_VVA_Direction,1001,Whi,
ahead_word_2_WHI.jpg,ahead,2,_WHI,word,,,,,1,0,1,0,0,8,8,7,,,,,,,,,,,,,,,,,f,1.13411472917,,,,,,,2018_Jul_20_1137,59.8823435095,Arrows_VVA_Direction,1001,Whi,
left_image_2_WHI.jpg,left,2,_WHI,image,,,,,1,0,1,0,,,,,0,0,0,8,,,,,,,,,,,,,f,4.18291463386,d,3.34951473642,,,,,2018_Jul_20_1137,59.8823435095,Arrows_VVA_Direction,1001,Whi,
right_image_1_WHI.jpg,right,1,_WHI,image,,,,,1,0,1,0,,,,,0,1,1,5,,,,,,,,,,,,,a,4.78215995291,,,,,,,2018_Jul_20_1137,59.8823435095,Arrows_VVA_Direction,1001,Whi,
right_image_2_WHI.jpg,right,2,_WHI,image,,,,,1,0,1,0,,,,,0,2,2,7,,,,,,,,,,,,,f,1.99977955747,,,,,,,2018_Jul_20_1137,59.8823435095,Arrows_VVA_Direction,1001,Whi,
left_image_1_WHI.jpg,left,1,_WHI,image,,,,,1,0,1,0,,,,,0,3,3,3,,,,,,,,,,,,,f,5.66529462767,,,,,,,2018_Jul_20_1137,59.8823435095,Arrows_VVA_Direction,1001,Whi,
left_image_3_WHI.jpg,left,3,_WHI,image,,,,,1,0,1,0,,,,,0,4,4,2,,,,,,,,,,,,,a,2.05015022667,,,,,,,2018_Jul_20_1137,59.8823435095,Arrows_VVA_Direction,1001,Whi,
right_image_3_WHI.jpg,right,3,_WHI,image,,,,,1,0,1,0,,,,,0,5,5,4,,,,,,,,,,,,,f,2.76703777465,,,,,,,2018_Jul_20_1137,59.8823435095,Arrows_VVA_Direction,1001,Whi,
ahead_image_3_WHI.jpg,ahead,3,_WHI,image,,,,,1,0,1,0,,,,,0,6,6,6,,,,,,,,,,,,,a,2.03370807074,,,,,,,2018_Jul_20_1137,59.8823435095,Arrows_VVA_Direction,1001,Whi,
ahead_image_1_WHI.jpg,ahead,1,_WHI,image,,,,,1,0,1,0,,,,,0,7,7,0,,,,,,,,,,,,,f,1.65043439224,,,,,,,2018_Jul_20_1137,59.8823435095,Arrows_VVA_Direction,1001,Whi,
ahead_image_2_WHI.jpg,ahead,2,_WHI,image,,,,,1,0,1,0,,,,,0,8,8,1,,,,,,,,,,,,,f,3.86584734044,,,,,,,2018_Jul_20_1137,59.8823435095,Arrows_VVA_Direction,1001,Whi,
ahead_schema_3_WHI.jpg,ahead,3,_WHI,schema,,,,,1,0,1,0,,,,,,,,,0,0,0,3,,,,,,,,,f,3.36656467109,d,2.4830484612,,,,,2018_Jul_20_1137,59.8823435095,Arrows_VVA_Direction,1001,Whi,
ahead_schema_1_WHI.jpg,ahead,1,_WHI,schema,,,,,1,0,1,0,,,,,,,,,0,1,1,4,,,,,,,,,f,1.21765530377,,,,,,,2018_Jul_20_1137,59.8823435095,Arrows_VVA_Direction,1001,Whi,
right_schema_1_WHI.jpg,right,1,_WHI,schema,,,,,1,0,1,0,,,,,,,,,0,2,2,1,,,,,,,,,a,1.16795801061,,,,,,,2018_Jul_20_1137,59.8823435095,Arrows_VVA_Direction,1001,Whi,
left_schema_3_WHI.jpg,left,3,_WHI,schema,,,,,1,0,1,0,,,,,,,,,0,3,3,5,,,,,,,,,a,1.31689415233,,,,,,,2018_Jul_20_1137,59.8823435095,Arrows_VVA_Direction,1001,Whi,
right_schema_2_WHI.jpg,right,2,_WHI,schema,,,,,1,0,1,0,,,,,,,,,0,4,4,7,,,,,,,,,a,5.0487128879,,,,,,,2018_Jul_20_1137,59.8823435095,Arrows_VVA_Direction,1001,Whi,
right_schema_3_WHI.jpg,right,3,_WHI,schema,,,,,1,0,1,0,,,,,,,,,0,5,5,2,,,,,,,,,f,2.14988217034,,,,,,,2018_Jul_20_1137,59.8823435095,Arrows_VVA_Direction,1001,Whi,
ahead_schema_2_WHI.jpg,ahead,2,_WHI,schema,,,,,1,0,1,0,,,,,,,,,0,6,6,0,,,,,,,,,a,1.28416959436,,,,,,,2018_Jul_20_1137,59.8823435095,Arrows_VVA_Direction,1001,Whi,
left_schema_1_WHI.jpg,left,1,_WHI,schema,,,,,1,0,1,0,,,,,,,,,0,7,7,6,,,,,,,,,a,1.78364860927,,,,,,,2018_Jul_20_1137,59.8823435095,Arrows_VVA_Direction,1001,Whi,
left_schema_2_WHI.jpg,left,2,_WHI,schema,,,,,1,0,1,0,,,,,,,,,0,8,8,8,,,,,,,,,f,1.50097257989,,,,,,,2018_Jul_20_1137,59.8823435095,Arrows_VVA_Direction,1001,Whi,
,,,,,,,,,,,,,,,,,,,,,,,,,,,,,,,,,,,,,d,25.1377569394,,,2018_Jul_20_1137,59.8823435095,Arrows_VVA_Direction,1001,Whi,
,,,,,left_schema_20_WHI.jpg,left,20,schema,,,,,,,,,,,,,,,,,0,0,0,0,,,,,,,,,,,f,3.63298284163,2018_Jul_20_1137,59.8823435095,Arrows_VVA_Direction,1001,Whi,
,,,,,left_schema_18_WHI.jpg,left,18,schema,,,,,,,,,,,,,,,,,0,1,1,1,,,,,,,,,,,f,1.83419955938,2018_Jul_20_1137,59.8823435095,Arrows_VVA_Direction,1001,Whi,
,,,,,right_schema_1_WHI.jpg,right,1,schema,,,,,,,,,,,,,,,,,0,2,2,2,,,,,,,,,,,a,1.43398349002,2018_Jul_20_1137,59.8823435095,Arrows_VVA_Direction,1001,Whi,
,,,,,ahead_schema_7_WHI.jpg,ahead,7,schema,,,,,,,,,,,,,,,,,0,3,3,3,,,,,,,,,,,a,1.80059903246,2018_Jul_20_1137,59.8823435095,Arrows_VVA_Direction,1001,Whi,
,,,,,right_schema_9_WHI.jpg,right,9,schema,,,,,,,,,,,,,,,,,0,4,4,4,,,,,,,,,,,a,1.81716524309,2018_Jul_20_1137,59.8823435095,Arrows_VVA_Direction,1001,Whi,
,,,,,ahead_schema_5_WHI.jpg,ahead,5,schema,,,,,,,,,,,,,,,,,0,5,5,5,,,,,,,,,,,a,1.68383901984,2018_Jul_20_1137,59.8823435095,Arrows_VVA_Direction,1001,Whi,
,,,,,ahead_schema_6_WHI.jpg,ahead,6,schema,,,,,,,,,,,,,,,,,0,6,6,6,,,,,,,,,,,f,1.95112021838,2018_Jul_20_1137,59.8823435095,Arrows_VVA_Direction,1001,Whi,
,,,,,left_schema_3_WHI.jpg,left,3,schema,,,,,,,,,,,,,,,,,0,7,7,7,,,,,,,,,,,a,1.417345881,2018_Jul_20_1137,59.8823435095,Arrows_VVA_Direction,1001,Whi,
,,,,,right_schema_7_WHI.jpg,right,7,schema,,,,,,,,,,,,,,,,,0,8,8,8,,,,,,,,,,,a,1.41734097236,2018_Jul_20_1137,59.8823435095,Arrows_VVA_Direction,1001,Whi,
,,,,,left_schema_4_WHI.jpg,left,4,schema,,,,,,,,,,,,,,,,,0,9,9,9,,,,,,,,,,,a,2.74999408732,2018_Jul_20_1137,59.8823435095,Arrows_VVA_Direction,1001,Whi,
,,,,,right_schema_19_WHI.jpg,right,19,schema,,,,,,,,,,,,,,,,,0,10,10,10,,,,,,,,,,,f,3.64951647674,2018_Jul_20_1137,59.8823435095,Arrows_VVA_Direction,1001,Whi,
,,,,,right_schema_17_WHI.jpg,right,17,schema,,,,,,,,,,,,,,,,,0,11,11,11,,,,,,,,,,,f,1.41698576539,2018_Jul_20_1137,59.8823435095,Arrows_VVA_Direction,1001,Whi,
,,,,,ahead_schema_10_WHI.jpg,ahead,10,schema,,,,,,,,,,,,,,,,,0,12,12,12,,,,,,,,,,,a,1.78382353531,2018_Jul_20_1137,59.8823435095,Arrows_VVA_Direction,1001,Whi,
,,,,,right_schema_6_WHI.jpg,right,6,schema,,,,,,,,,,,,,,,,,0,13,13,13,,,,,,,,,,,a,1.61722655645,2018_Jul_20_1137,59.8823435095,Arrows_VVA_Direction,1001,Whi,
,,,,,left_schema_12_WHI.jpg,left,12,schema,,,,,,,,,,,,,,,,,0,14,14,14,,,,,,,,,,,a,1.73390089102,2018_Jul_20_1137,59.8823435095,Arrows_VVA_Direction,1001,Whi,
,,,,,ahead_schema_4_WHI.jpg,ahead,4,schema,,,,,,,,,,,,,,,,,0,15,15,15,,,,,,,,,,,a,1.7838993961,2018_Jul_20_1137,59.8823435095,Arrows_VVA_Direction,1001,Whi,
,,,,,left_schema_11_WHI.jpg,left,11,schema,,,,,,,,,,,,,,,,,0,16,16,16,,,,,,,,,,,a,1.65067357685,2018_Jul_20_1137,59.8823435095,Arrows_VVA_Direction,1001,Whi,
,,,,,ahead_schema_13_WHI.jpg,ahead,13,schema,,,,,,,,,,,,,,,,,0,17,17,17,,,,,,,,,,,a,2.10070876285,2018_Jul_20_1137,59.8823435095,Arrows_VVA_Direction,1001,Whi,
,,,,,ahead_schema_12_WHI.jpg,ahead,12,schema,,,,,,,,,,,,,,,,,0,18,18,18,,,,,,,,,,,f,1.68397467677,2018_Jul_20_1137,59.8823435095,Arrows_VVA_Direction,1001,Whi,
,,,,,left_schema_10_WHI.jpg,left,10,schema,,,,,,,,,,,,,,,,,0,19,19,19,,,,,,,,,,,a,1.65054729095,2018_Jul_20_1137,59.8823435095,Arrows_VVA_Direction,1001,Whi,
,,,,,right_schema_5_WHI.jpg,right,5,schema,,,,,,,,,,,,,,,,,0,20,20,20,,,,,,,,,,,a,1.78393018666,2018_Jul_20_1137,59.8823435095,Arrows_VVA_Direction,1001,Whi,
,,,,,ahead_image_8_WHI.jpg,ahead,8,image,,,,,,,,,,,,,,,,,0,21,21,21,,,,,,,,,,,f,7.43014270306,2018_Jul_20_1137,59.8823435095,Arrows_VVA_Direction,1001,Whi,
,,,,,right_image_3_WHI.jpg,right,3,image,,,,,,,,,,,,,,,,,0,22,22,22,,,,,,,,,,,a,5.79826296651,2018_Jul_20_1137,59.8823435095,Arrows_VVA_Direction,1001,Whi,
,,,,,left_image_7_WHI.jpg,left,7,image,,,,,,,,,,,,,,,,,0,23,23,23,,,,,,,,,,,a,6.53178678478,2018_Jul_20_1137,59.8823435095,Arrows_VVA_Direction,1001,Whi,
,,,,,ahead_image_19_WHI.jpg,ahead,19,image,,,,,,,,,,,,,,,,,0,24,24,24,,,,,,,,,,,a,3.04993067663,2018_Jul_20_1137,59.8823435095,Arrows_VVA_Direction,1001,Whi,
,,,,,right_image_5_WHI.jpg,right,5,image,,,,,,,,,,,,,,,,,0,25,25,25,,,,,,,,,,,a,3.96595992676,2018_Jul_20_1137,59.8823435095,Arrows_VVA_Direction,1001,Whi,
,,,,,left_image_11_WHI.jpg,left,11,image,,,,,,,,,,,,,,,,,0,26,26,26,,,,,,,,,,,f,2.53304071895,2018_Jul_20_1137,59.8823435095,Arrows_VVA_Direction,1001,Whi,
,,,,,right_image_8_WHI.jpg,right,8,image,,,,,,,,,,,,,,,,,0,27,27,27,,,,,,,,,,,f,3.44994236811,2018_Jul_20_1137,59.8823435095,Arrows_VVA_Direction,1001,Whi,
,,,,,ahead_image_18_WHI.jpg,ahead,18,image,,,,,,,,,,,,,,,,,0,28,28,28,,,,,,,,,,,a,1.98378765762,2018_Jul_20_1137,59.8823435095,Arrows_VVA_Direction,1001,Whi,
,,,,,left_image_20_WHI.jpg,left,20,image,,,,,,,,,,,,,,,,,0,29,29,29,,,,,,,,,,,a,2.34995919136,2018_Jul_20_1137,59.8823435095,Arrows_VVA_Direction,1001,Whi,
,,,,,right_image_18_WHI.jpg,right,18,image,,,,,,,,,,,,,,,,,0,30,30,30,,,,,,,,,,,f,2.06723987671,2018_Jul_20_1137,59.8823435095,Arrows_VVA_Direction,1001,Whi,
,,,,,left_image_10_WHI.jpg,left,10,image,,,,,,,,,,,,,,,,,0,31,31,31,,,,,,,,,,,a,3.09972480385,2018_Jul_20_1137,59.8823435095,Arrows_VVA_Direction,1001,Whi,
,,,,,left_image_5_WHI.jpg,left,5,image,,,,,,,,,,,,,,,,,0,32,32,32,,,,,,,,,,,f,2.45003875594,2018_Jul_20_1137,59.8823435095,Arrows_VVA_Direction,1001,Whi,
,,,,,ahead_image_15_WHI.jpg,ahead,15,image,,,,,,,,,,,,,,,,,0,33,33,33,,,,,,,,,,,a,1.83365068429,2018_Jul_20_1137,59.8823435095,Arrows_VVA_Direction,1001,Whi,
,,,,,right_image_2_WHI.jpg,right,2,image,,,,,,,,,,,,,,,,,0,34,34,34,,,,,,,,,,,a,2.1500794084,2018_Jul_20_1137,59.8823435095,Arrows_VVA_Direction,1001,Whi,
,,,,,ahead_image_17_WHI.jpg,ahead,17,image,,,,,,,,,,,,,,,,,0,35,35,35,,,,,,,,,,,a,2.06631705257,2018_Jul_20_1137,59.8823435095,Arrows_VVA_Direction,1001,Whi,
,,,,,left_image_15_WHI.jpg,left,15,image,,,,,,,,,,,,,,,,,0,36,36,36,,,,,,,,,,,a,2.11689566956,2018_Jul_20_1137,59.8823435095,Arrows_VVA_Direction,1001,Whi,
,,,,,left_image_19_WHI.jpg,left,19,image,,,,,,,,,,,,,,,,,0,37,37,37,,,,,,,,,,,f,1.65040538665,2018_Jul_20_1137,59.8823435095,Arrows_VVA_Direction,1001,Whi,
,,,,,right_image_11_WHI.jpg,right,11,image,,,,,,,,,,,,,,,,,0,38,38,38,,,,,,,,,,,a,4.69915620494,2018_Jul_20_1137,59.8823435095,Arrows_VVA_Direction,1001,Whi,
,,,,,right_image_21_WHI.jpg,right,21,image,,,,,,,,,,,,,,,,,0,39,39,39,,,,,,,,,,,a,2.34990965873,2018_Jul_20_1137,59.8823435095,Arrows_VVA_Direction,1001,Whi,
,,,,,ahead_image_2_WHI.jpg,ahead,2,image,,,,,,,,,,,,,,,,,0,40,40,40,,,,,,,,,,,a,2.04979412722,2018_Jul_20_1137,59.8823435095,Arrows_VVA_Direction,1001,Whi,
,,,,,ahead_image_4_WHI.jpg,ahead,4,image,,,,,,,,,,,,,,,,,0,41,41,41,,,,,,,,,,,f,1.66727548666,2018_Jul_20_1137,59.8823435095,Arrows_VVA_Direction,1001,Whi,
,,,,,right_word_10_WHI.jpg,right,10,word,,,,,,,,,,,,,,,,,0,42,42,42,,,,,,,,,,,f,2.40014913338,2018_Jul_20_1137,59.8823435095,Arrows_VVA_Direction,1001,Whi,
,,,,,right_word_5_WHI.jpg,right,5,word,,,,,,,,,,,,,,,,,0,43,43,43,,,,,,,,,,,f,1.96693317602,2018_Jul_20_1137,59.8823435095,Arrows_VVA_Direction,1001,Whi,
,,,,,left_word_7_WHI.jpg,left,7,word,,,,,,,,,,,,,,,,,0,44,44,44,,,,,,,,,,,a,1.88482681653,2018_Jul_20_1137,59.8823435095,Arrows_VVA_Direction,1001,Whi,
,,,,,right_word_21_WHI.jpg,right,21,word,,,,,,,,,,,,,,,,,0,45,45,45,,,,,,,,,,,a,2.48347595904,2018_Jul_20_1137,59.8823435095,Arrows_VVA_Direction,1001,Whi,
,,,,,left_word_20_WHI.jpg,left,20,word,,,,,,,,,,,,,,,,,0,46,46,46,,,,,,,,,,,a,1.86713429635,2018_Jul_20_1137,59.8823435095,Arrows_VVA_Direction,1001,Whi,
,,,,,left_word_8_WHI.jpg,left,8,word,,,,,,,,,,,,,,,,,0,47,47,47,,,,,,,,,,,f,1.43432040115,2018_Jul_20_1137,59.8823435095,Arrows_VVA_Direction,1001,Whi,
,,,,,ahead_word_16_WHI.jpg,ahead,16,word,,,,,,,,,,,,,,,,,0,48,48,48,,,,,,,,,,,a,1.6828568458,2018_Jul_20_1137,59.8823435095,Arrows_VVA_Direction,1001,Whi,
,,,,,left_word_6_WHI.jpg,left,6,word,,,,,,,,,,,,,,,,,0,49,49,49,,,,,,,,,,,a,1.96679618036,2018_Jul_20_1137,59.8823435095,Arrows_VVA_Direction,1001,Whi,
,,,,,ahead_word_10_WHI.jpg,ahead,10,word,,,,,,,,,,,,,,,,,0,50,50,50,,,,,,,,,,,a,1.84971219757,2018_Jul_20_1137,59.8823435095,Arrows_VVA_Direction,1001,Whi,
,,,,,right_word_7_WHI.jpg,right,7,word,,,,,,,,,,,,,,,,,0,51,51,51,,,,,,,,,,,a,1.98365021573,2018_Jul_20_1137,59.8823435095,Arrows_VVA_Direction,1001,Whi,
,,,,,ahead_word_17_WHI.jpg,ahead,17,word,,,,,,,,,,,,,,,,,0,52,52,52,,,,,,,,,,,a,1.66671322437,2018_Jul_20_1137,59.8823435095,Arrows_VVA_Direction,1001,Whi,
,,,,,right_word_13_WHI.jpg,right,13,word,,,,,,,,,,,,,,,,,0,53,53,53,,,,,,,,,,,a,2.63336080684,2018_Jul_20_1137,59.8823435095,Arrows_VVA_Direction,1001,Whi,
,,,,,ahead_word_19_WHI.jpg,ahead,19,word,,,,,,,,,,,,,,,,,0,54,54,54,,,,,,,,,,,a,2.03322613164,2018_Jul_20_1137,59.8823435095,Arrows_VVA_Direction,1001,Whi,
,,,,,left_word_12_WHI.jpg,left,12,word,,,,,,,,,,,,,,,,,0,55,55,55,,,,,,,,,,,a,1.80054503743,2018_Jul_20_1137,59.8823435095,Arrows_VVA_Direction,1001,Whi,
,,,,,left_word_21_WHI.jpg,left,21,word,,,,,,,,,,,,,,,,,0,56,56,56,,,,,,,,,,,f,1.51752138717,2018_Jul_20_1137,59.8823435095,Arrows_VVA_Direction,1001,Whi,
,,,,,ahead_word_3_WHI.jpg,ahead,3,word,,,,,,,,,,,,,,,,,0,57,57,57,,,,,,,,,,,a,1.35024567739,2018_Jul_20_1137,59.8823435095,Arrows_VVA_Direction,1001,Whi,
,,,,,left_word_16_WHI.jpg,left,16,word,,,,,,,,,,,,,,,,,0,58,58,58,,,,,,,,,,,a,2.43344086228,2018_Jul_20_1137,59.8823435095,Arrows_VVA_Direction,1001,Whi,
,,,,,ahead_word_9_WHI.jpg,ahead,9,word,,,,,,,,,,,,,,,,,0,59,59,59,,,,,,,,,,,a,1.56666266538,2018_Jul_20_1137,59.8823435095,Arrows_VVA_Direction,1001,Whi,
,,,,,right_word_18_WHI.jpg,right,18,word,,,,,,,,,,,,,,,,,0,60,60,60,,,,,,,,,,,a,1.73425565175,2018_Jul_20_1137,59.8823435095,Arrows_VVA_Direction,1001,Whi,
,,,,,ahead_word_2_WHI.jpg,ahead,2,word,,,,,,,,,,,,,,,,,0,61,61,61,,,,,,,,,,,a,1.48397262408,2018_Jul_20_1137,59.8823435095,Arrows_VVA_Direction,1001,Whi,
,,,,,right_word_4_WHI.jpg,right,4,word,,,,,,,,,,,,,,,,,0,62,62,62,,,,,,,,,,,a,1.8164499205,2018_Jul_20_1137,59.8823435095,Arrows_VVA_Direction,1001,Whi,
,,,,,ahead_image_3_WHI.jpg,ahead,3,image,,,,,,,,,,,,,,,,,0,63,63,63,,,,,,,,,,,f,5.43216104621,2018_Jul_20_1137,59.8823435095,Arrows_VVA_Direction,1001,Whi,
,,,,,ahead_image_11_WHI.jpg,ahead,11,image,,,,,,,,,,,,,,,,,0,64,64,64,,,,,,,,,,,f,3.93265481066,2018_Jul_20_1137,59.8823435095,Arrows_VVA_Direction,1001,Whi,
,,,,,right_image_14_WHI.jpg,right,14,image,,,,,,,,,,,,,,,,,0,65,65,65,,,,,,,,,,,a,2.01684511057,2018_Jul_20_1137,59.8823435095,Arrows_VVA_Direction,1001,Whi,
,,,,,ahead_image_7_WHI.jpg,ahead,7,image,,,,,,,,,,,,,,,,,0,66,66,66,,,,,,,,,,,a,2.18386824855,2018_Jul_20_1137,59.8823435095,Arrows_VVA_Direction,1001,Whi,
,,,,,right_image_10_WHI.jpg,right,10,image,,,,,,,,,,,,,,,,,0,67,67,67,,,,,,,,,,,a,3.38223349325,2018_Jul_20_1137,59.8823435095,Arrows_VVA_Direction,1001,Whi,
,,,,,right_image_20_WHI.jpg,right,20,image,,,,,,,,,,,,,,,,,0,68,68,68,,,,,,,,,,,f,2.50049644191,2018_Jul_20_1137,59.8823435095,Arrows_VVA_Direction,1001,Whi,
,,,,,left_image_1_WHI.jpg,left,1,image,,,,,,,,,,,,,,,,,0,69,69,69,,,,,,,,,,,f,3.46616452777,2018_Jul_20_1137,59.8823435095,Arrows_VVA_Direction,1001,Whi,
,,,,,left_image_13_WHI.jpg,left,13,image,,,,,,,,,,,,,,,,,0,70,70,70,,,,,,,,,,,f,4.16581739773,2018_Jul_20_1137,59.8823435095,Arrows_VVA_Direction,1001,Whi,
,,,,,left_image_6_WHI.jpg,left,6,image,,,,,,,,,,,,,,,,,0,71,71,71,,,,,,,,,,,f,3.71606066542,2018_Jul_20_1137,59.8823435095,Arrows_VVA_Direction,1001,Whi,
,,,,,left_image_16_WHI.jpg,left,16,image,,,,,,,,,,,,,,,,,0,72,72,72,,,,,,,,,,,f,4.832457885,2018_Jul_20_1137,59.8823435095,Arrows_VVA_Direction,1001,Whi,
,,,,,right_image_19_WHI.jpg,right,19,image,,,,,,,,,,,,,,,,,0,73,73,73,,,,,,,,,,,f,2.9331662016,2018_Jul_20_1137,59.8823435095,Arrows_VVA_Direction,1001,Whi,
,,,,,left_image_8_WHI.jpg,left,8,image,,,,,,,,,,,,,,,,,0,74,74,74,,,,,,,,,,,f,2.48337109268,2018_Jul_20_1137,59.8823435095,Arrows_VVA_Direction,1001,Whi,
,,,,,right_image_7_WHI.jpg,right,7,image,,,,,,,,,,,,,,,,,0,75,75,75,,,,,,,,,,,f,3.26677471622,2018_Jul_20_1137,59.8823435095,Arrows_VVA_Direction,1001,Whi,
,,,,,left_image_17_WHI.jpg,left,17,image,,,,,,,,,,,,,,,,,0,76,76,76,,,,,,,,,,,f,3.34996409999,2018_Jul_20_1137,59.8823435095,Arrows_VVA_Direction,1001,Whi,
,,,,,right_image_6_WHI.jpg,right,6,image,,,,,,,,,,,,,,,,,0,77,77,77,,,,,,,,,,,f,4.8156158981,2018_Jul_20_1137,59.8823435095,Arrows_VVA_Direction,1001,Whi,
,,,,,left_image_12_WHI.jpg,left,12,image,,,,,,,,,,,,,,,,,0,78,78,78,,,,,,,,,,,f,4.94929063471,2018_Jul_20_1137,59.8823435095,Arrows_VVA_Direction,1001,Whi,
,,,,,right_image_13_WHI.jpg,right,13,image,,,,,,,,,,,,,,,,,0,79,79,79,,,,,,,,,,,f,4.31518639218,2018_Jul_20_1137,59.8823435095,Arrows_VVA_Direction,1001,Whi,
,,,,,ahead_image_16_WHI.jpg,ahead,16,image,,,,,,,,,,,,,,,,,0,80,80,80,,,,,,,,,,,a,2.66669626725,2018_Jul_20_1137,59.8823435095,Arrows_VVA_Direction,1001,Whi,
,,,,,ahead_image_13_WHI.jpg,ahead,13,image,,,,,,,,,,,,,,,,,0,81,81,81,,,,,,,,,,,f,2.16689417465,2018_Jul_20_1137,59.8823435095,Arrows_VVA_Direction,1001,Whi,
,,,,,ahead_image_10_WHI.jpg,ahead,10,image,,,,,,,,,,,,,,,,,0,82,82,82,,,,,,,,,,,f,2.74985352175,2018_Jul_20_1137,59.8823435095,Arrows_VVA_Direction,1001,Whi,
,,,,,ahead_image_20_WHI.jpg,ahead,20,image,,,,,,,,,,,,,,,,,0,83,83,83,,,,,,,,,,,f,3.31641265948,2018_Jul_20_1137,59.8823435095,Arrows_VVA_Direction,1001,Whi,
,,,,,left_word_2_WHI.jpg,left,2,word,,,,,,,,,,,,,,,,,0,84,84,84,,,,,,,,,,,f,2.61692534451,2018_Jul_20_1137,59.8823435095,Arrows_VVA_Direction,1001,Whi,
,,,,,right_word_16_WHI.jpg,right,16,word,,,,,,,,,,,,,,,,,0,85,85,85,,,,,,,,,,,a,1.38382835471,2018_Jul_20_1137,59.8823435095,Arrows_VVA_Direction,1001,Whi,
,,,,,ahead_word_20_WHI.jpg,ahead,20,word,,,,,,,,,,,,,,,,,0,86,86,86,,,,,,,,,,,a,1.36783957854,2018_Jul_20_1137,59.8823435095,Arrows_VVA_Direction,1001,Whi,
,,,,,ahead_word_7_WHI.jpg,ahead,7,word,,,,,,,,,,,,,,,,,0,87,87,87,,,,,,,,,,,f,1.48395298951,2018_Jul_20_1137,59.8823435095,Arrows_VVA_Direction,1001,Whi,
,,,,,left_word_3_WHI.jpg,left,3,word,,,,,,,,,,,,,,,,,0,88,88,88,,,,,,,,,,,a,1.48375709019,2018_Jul_20_1137,59.8823435095,Arrows_VVA_Direction,1001,Whi,
,,,,,ahead_word_14_WHI.jpg,ahead,14,word,,,,,,,,,,,,,,,,,0,89,89,89,,,,,,,,,,,a,1.43399330731,2018_Jul_20_1137,59.8823435095,Arrows_VVA_Direction,1001,Whi,
,,,,,left_word_10_WHI.jpg,left,10,word,,,,,,,,,,,,,,,,,0,90,90,90,,,,,,,,,,,a,1.88418556977,2018_Jul_20_1137,59.8823435095,Arrows_VVA_Direction,1001,Whi,
,,,,,left_word_5_WHI.jpg,left,5,word,,,,,,,,,,,,,,,,,0,91,91,91,,,,,,,,,,,f,1.20074638088,2018_Jul_20_1137,59.8823435095,Arrows_VVA_Direction,1001,Whi,
,,,,,left_word_1_WHI.jpg,left,1,word,,,,,,,,,,,,,,,,,0,92,92,92,,,,,,,,,,,f,1.21753660394,2018_Jul_20_1137,59.8823435095,Arrows_VVA_Direction,1001,Whi,
,,,,,ahead_word_4_WHI.jpg,ahead,4,word,,,,,,,,,,,,,,,,,0,93,93,93,,,,,,,,,,,a,1.23472531924,2018_Jul_20_1137,59.8823435095,Arrows_VVA_Direction,1001,Whi,
,,,,,left_word_11_WHI.jpg,left,11,word,,,,,,,,,,,,,,,,,0,94,94,94,,,,,,,,,,,a,1.86711957042,2018_Jul_20_1137,59.8823435095,Arrows_VVA_Direction,1001,Whi,
,,,,,ahead_word_1_WHI.jpg,ahead,1,word,,,,,,,,,,,,,,,,,0,95,95,95,,,,,,,,,,,a,1.63422026492,2018_Jul_20_1137,59.8823435095,Arrows_VVA_Direction,1001,Whi,
,,,,,right_word_9_WHI.jpg,right,9,word,,,,,,,,,,,,,,,,,0,96,96,96,,,,,,,,,,,a,1.65076907219,2018_Jul_20_1137,59.8823435095,Arrows_VVA_Direction,1001,Whi,
,,,,,right_word_11_WHI.jpg,right,11,word,,,,,,,,,,,,,,,,,0,97,97,97,,,,,,,,,,,a,0.084528995998,2018_Jul_20_1137,59.8823435095,Arrows_VVA_Direction,1001,Whi,
,,,,,right_word_3_WHI.jpg,right,3,word,,,,,,,,,,,,,,,,,0,98,98,98,,,,,,,,,,,f,1.45074292252,2018_Jul_20_1137,59.8823435095,Arrows_VVA_Direction,1001,Whi,
,,,,,right_word_2_WHI.jpg,right,2,word,,,,,,,,,,,,,,,,,0,99,99,99,,,,,,,,,,,f,1.56721287919,2018_Jul_20_1137,59.8823435095,Arrows_VVA_Direction,1001,Whi,
,,,,,right_word_20_WHI.jpg,right,20,word,,,,,,,,,,,,,,,,,0,100,100,100,,,,,,,,,,,f,1.58383799349,2018_Jul_20_1137,59.8823435095,Arrows_VVA_Direction,1001,Whi,
,,,,,right_word_14_WHI.jpg,right,14,word,,,,,,,,,,,,,,,,,0,101,101,101,,,,,,,,,,,f,1.33391820511,2018_Jul_20_1137,59.8823435095,Arrows_VVA_Direction,1001,Whi,
,,,,,ahead_word_11_WHI.jpg,ahead,11,word,,,,,,,,,,,,,,,,,0,102,102,102,,,,,,,,,,,a,1.30081612819,2018_Jul_20_1137,59.8823435095,Arrows_VVA_Direction,1001,Whi,
,,,,,left_word_15_WHI.jpg,left,15,word,,,,,,,,,,,,,,,,,0,103,103,103,,,,,,,,,,,a,2.51710415284,2018_Jul_20_1137,59.8823435095,Arrows_VVA_Direction,1001,Whi,
,,,,,ahead_word_6_WHI.jpg,ahead,6,word,,,,,,,,,,,,,,,,,0,104,104,104,,,,,,,,,,,a,1.88317572883,2018_Jul_20_1137,59.8823435095,Arrows_VVA_Direction,1001,Whi,
,,,,,right_schema_13_WHI.jpg,right,13,schema,,,,,,,,,,,,,,,,,0,105,105,105,,,,,,,,,,,f,2.93303054468,2018_Jul_20_1137,59.8823435095,Arrows_VVA_Direction,1001,Whi,
,,,,,right_schema_8_WHI.jpg,right,8,schema,,,,,,,,,,,,,,,,,0,106,106,106,,,,,,,,,,,f,1.81708982855,2018_Jul_20_1137,59.8823435095,Arrows_VVA_Direction,1001,Whi,
,,,,,ahead_schema_1_WHI.jpg,ahead,1,schema,,,,,,,,,,,,,,,,,0,107,107,107,,,,,,,,,,,a,1.51715100803,2018_Jul_20_1137,59.8823435095,Arrows_VVA_Direction,1001,Whi,
,,,,,ahead_schema_18_WHI.jpg,ahead,18,schema,,,,,,,,,,,,,,,,,0,108,108,108,,,,,,,,,,,f,1.83388540648,2018_Jul_20_1137,59.8823435095,Arrows_VVA_Direction,1001,Whi,
,,,,,ahead_schema_16_WHI.jpg,ahead,16,schema,,,,,,,,,,,,,,,,,0,109,109,109,,,,,,,,,,,f,1.46742292432,2018_Jul_20_1137,59.8823435095,Arrows_VVA_Direction,1001,Whi,
,,,,,right_schema_4_WHI.jpg,right,4,schema,,,,,,,,,,,,,,,,,0,110,110,110,,,,,,,,,,,a,1.33411812061,2018_Jul_20_1137,59.8823435095,Arrows_VVA_Direction,1001,Whi,
,,,,,ahead_schema_20_WHI.jpg,ahead,20,schema,,,,,,,,,,,,,,,,,0,111,111,111,,,,,,,,,,,a,1.75039302581,2018_Jul_20_1137,59.8823435095,Arrows_VVA_Direction,1001,Whi,
,,,,,ahead_schema_2_WHI.jpg,ahead,2,schema,,,,,,,,,,,,,,,,,0,112,112,112,,,,,,,,,,,f,2.1502427322,2018_Jul_20_1137,59.8823435095,Arrows_VVA_Direction,1001,Whi,
,,,,,left_schema_17_WHI.jpg,left,17,schema,,,,,,,,,,,,,,,,,0,113,113,113,,,,,,,,,,,a,1.51742455311,2018_Jul_20_1137,59.8823435095,Arrows_VVA_Direction,1001,Whi,
,,,,,right_schema_10_WHI.jpg,right,10,schema,,,,,,,,,,,,,,,,,0,114,114,114,,,,,,,,,,,a,1.55220404589,2018_Jul_20_1137,59.8823435095,Arrows_VVA_Direction,1001,Whi,
,,,,,left_schema_8_WHI.jpg,left,8,schema,,,,,,,,,,,,,,,,,0,115,115,115,,,,,,,,,,,a,2.3169396688,2018_Jul_20_1137,59.8823435095,Arrows_VVA_Direction,1001,Whi,
,,,,,right_schema_11_WHI.jpg,right,11,schema,,,,,,,,,,,,,,,,,0,116,116,116,,,,,,,,,,,a,3.14990225116,2018_Jul_20_1137,59.8823435095,Arrows_VVA_Direction,1001,Whi,
,,,,,ahead_schema_9_WHI.jpg,ahead,9,schema,,,,,,,,,,,,,,,,,0,117,117,117,,,,,,,,,,,a,2.25428222978,2018_Jul_20_1137,59.8823435095,Arrows_VVA_Direction,1001,Whi,
,,,,,left_schema_16_WHI.jpg,left,16,schema,,,,,,,,,,,,,,,,,0,118,118,118,,,,,,,,,,,a,1.91759153608,2018_Jul_20_1137,59.8823435095,Arrows_VVA_Direction,1001,Whi,
,,,,,left_schema_2_WHI.jpg,left,2,schema,,,,,,,,,,,,,,,,,0,119,119,119,,,,,,,,,,,f,1.85035165936,2018_Jul_20_1137,59.8823435095,Arrows_VVA_Direction,1001,Whi,
,,,,,ahead_schema_11_WHI.jpg,ahead,11,schema,,,,,,,,,,,,,,,,,0,120,120,120,,,,,,,,,,,a,2.15072244011,2018_Jul_20_1137,59.8823435095,Arrows_VVA_Direction,1001,Whi,
,,,,,right_schema_21_WHI.jpg,right,21,schema,,,,,,,,,,,,,,,,,0,121,121,121,,,,,,,,,,,a,2.43362426689,2018_Jul_20_1137,59.8823435095,Arrows_VVA_Direction,1001,Whi,
,,,,,left_schema_13_WHI.jpg,left,13,schema,,,,,,,,,,,,,,,,,0,122,122,122,,,,,,,,,,,a,2.0170231603,2018_Jul_20_1137,59.8823435095,Arrows_VVA_Direction,1001,Whi,
,,,,,right_schema_16_WHI.jpg,right,16,schema,,,,,,,,,,,,,,,,,0,123,123,123,,,,,,,,,,,a,2.53383636472,2018_Jul_20_1137,59.8823435095,Arrows_VVA_Direction,1001,Whi,
,,,,,left_schema_7_WHI.jpg,left,7,schema,,,,,,,,,,,,,,,,,0,124,124,124,,,,,,,,,,,a,7.34764231372,2018_Jul_20_1137,59.8823435095,Arrows_VVA_Direction,1001,Whi,
,,,,,left_schema_5_WHI.jpg,left,5,schema,,,,,,,,,,,,,,,,,0,125,125,125,,,,,,,,,,,f,1.45110437684,2018_Jul_20_1137,59.8823435095,Arrows_VVA_Direction,1001,Whi,
,,,,,right_word_19_WHI.jpg,right,19,word,,,,,,,,,,,,,,,,,0,126,126,126,,,,,,,,,,,f,2.41548952296,2018_Jul_20_1137,59.8823435095,Arrows_VVA_Direction,1001,Whi,
,,,,,right_word_17_WHI.jpg,right,17,word,,,,,,,,,,,,,,,,,0,127,127,127,,,,,,,,,,,f,1.53410857107,2018_Jul_20_1137,59.8823435095,Arrows_VVA_Direction,1001,Whi,
,,,,,right_word_6_WHI.jpg,right,6,word,,,,,,,,,,,,,,,,,0,128,128,128,,,,,,,,,,,f,1.21782532118,2018_Jul_20_1137,59.8823435095,Arrows_VVA_Direction,1001,Whi,
,,,,,ahead_word_21_WHI.jpg,ahead,21,word,,,,,,,,,,,,,,,,,0,129,129,129,,,,,,,,,,,a,1.383947947,2018_Jul_20_1137,59.8823435095,Arrows_VVA_Direction,1001,Whi,
,,,,,ahead_word_18_WHI.jpg,ahead,18,word,,,,,,,,,,,,,,,,,0,130,130,130,,,,,,,,,,,f,1.35113547977,2018_Jul_20_1137,59.8823435095,Arrows_VVA_Direction,1001,Whi,
,,,,,ahead_word_8_WHI.jpg,ahead,8,word,,,,,,,,,,,,,,,,,0,131,131,131,,,,,,,,,,,f,1.26769486294,2018_Jul_20_1137,59.8823435095,Arrows_VVA_Direction,1001,Whi,
,,,,,left_word_4_WHI.jpg,left,4,word,,,,,,,,,,,,,,,,,0,132,132,132,,,,,,,,,,,a,1.36769365809,2018_Jul_20_1137,59.8823435095,Arrows_VVA_Direction,1001,Whi,
,,,,,left_word_18_WHI.jpg,left,18,word,,,,,,,,,,,,,,,,,0,133,133,133,,,,,,,,,,,f,1.23400955043,2018_Jul_20_1137,59.8823435095,Arrows_VVA_Direction,1001,Whi,
,,,,,left_word_19_WHI.jpg,left,19,word,,,,,,,,,,,,,,,,,0,134,134,134,,,,,,,,,,,f,1.38425808375,2018_Jul_20_1137,59.8823435095,Arrows_VVA_Direction,1001,Whi,
,,,,,ahead_word_15_WHI.jpg,ahead,15,word,,,,,,,,,,,,,,,,,0,135,135,135,,,,,,,,,,,a,1.25077299909,2018_Jul_20_1137,59.8823435095,Arrows_VVA_Direction,1001,Whi,
,,,,,right_word_8_WHI.jpg,right,8,word,,,,,,,,,,,,,,,,,0,136,136,136,,,,,,,,,,,a,1.55036910734,2018_Jul_20_1137,59.8823435095,Arrows_VVA_Direction,1001,Whi,
,,,,,left_word_13_WHI.jpg,left,13,word,,,,,,,,,,,,,,,,,0,137,137,137,,,,,,,,,,,a,1.53414203905,2018_Jul_20_1137,59.8823435095,Arrows_VVA_Direction,1001,Whi,
,,,,,left_word_14_WHI.jpg,left,14,word,,,,,,,,,,,,,,,,,0,138,138,138,,,,,,,,,,,f,1.73438149141,2018_Jul_20_1137,59.8823435095,Arrows_VVA_Direction,1001,Whi,
,,,,,ahead_word_5_WHI.jpg,ahead,5,word,,,,,,,,,,,,,,,,,0,139,139,139,,,,,,,,,,,a,1.65041029529,2018_Jul_20_1137,59.8823435095,Arrows_VVA_Direction,1001,Whi,
,,,,,right_word_12_WHI.jpg,right,12,word,,,,,,,,,,,,,,,,,0,140,140,140,,,,,,,,,,,a,1.76708507609,2018_Jul_20_1137,59.8823435095,Arrows_VVA_Direction,1001,Whi,
,,,,,ahead_word_13_WHI.jpg,ahead,13,word,,,,,,,,,,,,,,,,,0,141,141,141,,,,,,,,,,,a,1.65037459609,2018_Jul_20_1137,59.8823435095,Arrows_VVA_Direction,1001,Whi,
,,,,,left_word_17_WHI.jpg,left,17,word,,,,,,,,,,,,,,,,,0,142,142,142,,,,,,,,,,,a,1.56749891897,2018_Jul_20_1137,59.8823435095,Arrows_VVA_Direction,1001,Whi,
,,,,,left_word_9_WHI.jpg,left,9,word,,,,,,,,,,,,,,,,,0,143,143,143,,,,,,,,,,,f,1.43440875666,2018_Jul_20_1137,59.8823435095,Arrows_VVA_Direction,1001,Whi,
,,,,,right_word_15_WHI.jpg,right,15,word,,,,,,,,,,,,,,,,,0,144,144,144,,,,,,,,,,,a,1.4008582086,2018_Jul_20_1137,59.8823435095,Arrows_VVA_Direction,1001,Whi,
,,,,,ahead_word_12_WHI.jpg,ahead,12,word,,,,,,,,,,,,,,,,,0,145,145,145,,,,,,,,,,,a,1.95345405313,2018_Jul_20_1137,59.8823435095,Arrows_VVA_Direction,1001,Whi,
,,,,,right_word_1_WHI.jpg,right,1,word,,,,,,,,,,,,,,,,,0,146,146,146,,,,,,,,,,,a,1.86761177306,2018_Jul_20_1137,59.8823435095,Arrows_VVA_Direction,1001,Whi,
,,,,,right_schema_18_WHI.jpg,right,18,schema,,,,,,,,,,,,,,,,,0,147,147,147,,,,,,,,,,,f,2.41635121223,2018_Jul_20_1137,59.8823435095,Arrows_VVA_Direction,1001,Whi,
,,,,,right_schema_3_WHI.jpg,right,3,schema,,,,,,,,,,,,,,,,,0,148,148,148,,,,,,,,,,,f,1.80004881865,2018_Jul_20_1137,59.8823435095,Arrows_VVA_Direction,1001,Whi,
,,,,,left_schema_9_WHI.jpg,left,9,schema,,,,,,,,,,,,,,,,,0,149,149,149,,,,,,,,,,,a,1.50034338162,2018_Jul_20_1137,59.8823435095,Arrows_VVA_Direction,1001,Whi,
,,,,,ahead_schema_8_WHI.jpg,ahead,8,schema,,,,,,,,,,,,,,,,,0,150,150,150,,,,,,,,,,,a,1.7337522931,2018_Jul_20_1137,59.8823435095,Arrows_VVA_Direction,1001,Whi,
,,,,,ahead_schema_15_WHI.jpg,ahead,15,schema,,,,,,,,,,,,,,,,,0,151,151,151,,,,,,,,,,,f,1.6510229827,2018_Jul_20_1137,59.8823435095,Arrows_VVA_Direction,1001,Whi,
,,,,,right_schema_15_WHI.jpg,right,15,schema,,,,,,,,,,,,,,,,,0,152,152,152,,,,,,,,,,,a,1.58439088475,2018_Jul_20_1137,59.8823435095,Arrows_VVA_Direction,1001,Whi,
,,,,,ahead_schema_14_WHI.jpg,ahead,14,schema,,,,,,,,,,,,,,,,,0,153,153,153,,,,,,,,,,,a,1.70002681902,2018_Jul_20_1137,59.8823435095,Arrows_VVA_Direction,1001,Whi,
,,,,,left_schema_6_WHI.jpg,left,6,schema,,,,,,,,,,,,,,,,,0,154,154,154,,,,,,,,,,,a,2.4830930852,2018_Jul_20_1137,59.8823435095,Arrows_VVA_Direction,1001,Whi,
,,,,,right_schema_14_WHI.jpg,right,14,schema,,,,,,,,,,,,,,,,,0,155,155,155,,,,,,,,,,,a,1.78415732278,2018_Jul_20_1137,59.8823435095,Arrows_VVA_Direction,1001,Whi,
,,,,,right_schema_20_WHI.jpg,right,20,schema,,,,,,,,,,,,,,,,,0,156,156,156,,,,,,,,,,,f,1.56701653363,2018_Jul_20_1137,59.8823435095,Arrows_VVA_Direction,1001,Whi,
,,,,,right_schema_12_WHI.jpg,right,12,schema,,,,,,,,,,,,,,,,,0,157,157,157,,,,,,,,,,,f,1.48405026982,2018_Jul_20_1137,59.8823435095,Arrows_VVA_Direction,1001,Whi,
,,,,,left_schema_15_WHI.jpg,left,15,schema,,,,,,,,,,,,,,,,,0,158,158,158,,,,,,,,,,,a,1.334044491,2018_Jul_20_1137,59.8823435095,Arrows_VVA_Direction,1001,Whi,
,,,,,right_schema_2_WHI.jpg,right,2,schema,,,,,,,,,,,,,,,,,0,159,159,159,,,,,,,,,,,a,1.61693516179,2018_Jul_20_1137,59.8823435095,Arrows_VVA_Direction,1001,Whi,
,,,,,ahead_schema_3_WHI.jpg,ahead,3,schema,,,,,,,,,,,,,,,,,0,160,160,160,,,,,,,,,,,a,1.6338913861,2018_Jul_20_1137,59.8823435095,Arrows_VVA_Direction,1001,Whi,
,,,,,ahead_schema_21_WHI.jpg,ahead,21,schema,,,,,,,,,,,,,,,,,0,161,161,161,,,,,,,,,,,f,1.48437156256,2018_Jul_20_1137,59.8823435095,Arrows_VVA_Direction,1001,Whi,
,,,,,left_schema_21_WHI.jpg,left,21,schema,,,,,,,,,,,,,,,,,0,162,162,162,,,,,,,,,,,a,1.48394808087,2018_Jul_20_1137,59.8823435095,Arrows_VVA_Direction,1001,Whi,
,,,,,left_schema_19_WHI.jpg,left,19,schema,,,,,,,,,,,,,,,,,0,163,163,163,,,,,,,,,,,f,2.23404748083,2018_Jul_20_1137,59.8823435095,Arrows_VVA_Direction,1001,Whi,
,,,,,ahead_schema_17_WHI.jpg,ahead,17,schema,,,,,,,,,,,,,,,,,0,164,164,164,,,,,,,,,,,a,1.51674805339,2018_Jul_20_1137,59.8823435095,Arrows_VVA_Direction,1001,Whi,
,,,,,ahead_schema_19_WHI.jpg,ahead,19,schema,,,,,,,,,,,,,,,,,0,165,165,165,,,,,,,,,,,f,1.40094076299,2018_Jul_20_1137,59.8823435095,Arrows_VVA_Direction,1001,Whi,
,,,,,left_schema_14_WHI.jpg,left,14,schema,,,,,,,,,,,,,,,,,0,166,166,166,,,,,,,,,,,a,1.50066110444,2018_Jul_20_1137,59.8823435095,Arrows_VVA_Direction,1001,Whi,
,,,,,left_schema_1_WHI.jpg,left,1,schema,,,,,,,,,,,,,,,,,0,167,167,167,,,,,,,,,,,f,2.0827650096,2018_Jul_20_1137,59.8823435095,Arrows_VVA_Direction,1001,Whi,
,,,,,left_image_4_WHI.jpg,left,4,image,,,,,,,,,,,,,,,,,0,168,168,168,,,,,,,,,,,f,5.89842642419,2018_Jul_20_1137,59.8823435095,Arrows_VVA_Direction,1001,Whi,
,,,,,ahead_image_5_WHI.jpg,ahead,5,image,,,,,,,,,,,,,,,,,0,169,169,169,,,,,,,,,,,a,2.23306218309,2018_Jul_20_1137,59.8823435095,Arrows_VVA_Direction,1001,Whi,
,,,,,right_image_15_WHI.jpg,right,15,image,,,,,,,,,,,,,,,,,0,170,170,170,,,,,,,,,,,a,5.53145835221,2018_Jul_20_1137,59.8823435095,Arrows_VVA_Direction,1001,Whi,
,,,,,left_image_18_WHI.jpg,left,18,image,,,,,,,,,,,,,,,,,0,171,171,171,,,,,,,,,,,f,3.98310044815,2018_Jul_20_1137,59.8823435095,Arrows_VVA_Direction,1001,Whi,
,,,,,ahead_image_1_WHI.jpg,ahead,1,image,,,,,,,,,,,,,,,,,0,172,172,172,,,,,,,,,,,a,1.81738390063,2018_Jul_20_1137,59.8823435095,Arrows_VVA_Direction,1001,Whi,
,,,,,ahead_image_14_WHI.jpg,ahead,14,image,,,,,,,,,,,,,,,,,0,173,173,173,,,,,,,,,,,f,2.03317526028,2018_Jul_20_1137,59.8823435095,Arrows_VVA_Direction,1001,Whi,
,,,,,left_image_9_WHI.jpg,left,9,image,,,,,,,,,,,,,,,,,0,174,174,174,,,,,,,,,,,a,2.41700495371,2018_Jul_20_1137,59.8823435095,Arrows_VVA_Direction,1001,Whi,
,,,,,left_image_14_WHI.jpg,left,14,image,,,,,,,,,,,,,,,,,0,175,175,175,,,,,,,,,,,f,1.91715020481,2018_Jul_20_1137,59.8823435095,Arrows_VVA_Direction,1001,Whi,
,,,,,left_image_3_WHI.jpg,left,3,image,,,,,,,,,,,,,,,,,0,176,176,176,,,,,,,,,,,a,5.99816059906,2018_Jul_20_1137,59.8823435095,Arrows_VVA_Direction,1001,Whi,
,,,,,ahead_image_9_WHI.jpg,ahead,9,image,,,,,,,,,,,,,,,,,0,177,177,177,,,,,,,,,,,a,2.00029585707,2018_Jul_20_1137,59.8823435095,Arrows_VVA_Direction,1001,Whi,
,,,,,right_image_4_WHI.jpg,right,4,image,,,,,,,,,,,,,,,,,0,178,178,178,,,,,,,,,,,a,2.51656687997,2018_Jul_20_1137,59.8823435095,Arrows_VVA_Direction,1001,Whi,
,,,,,right_image_16_WHI.jpg,right,16,image,,,,,,,,,,,,,,,,,0,179,179,179,,,,,,,,,,,f,5.41528960748,2018_Jul_20_1137,59.8823435095,Arrows_VVA_Direction,1001,Whi,
,,,,,left_image_21_WHI.jpg,left,21,image,,,,,,,,,,,,,,,,,0,180,180,180,,,,,,,,,,,f,3.11666407104,2018_Jul_20_1137,59.8823435095,Arrows_VVA_Direction,1001,Whi,
,,,,,ahead_image_12_WHI.jpg,ahead,12,image,,,,,,,,,,,,,,,,,0,181,181,181,,,,,,,,,,,a,1.75042917124,2018_Jul_20_1137,59.8823435095,Arrows_VVA_Direction,1001,Whi,
,,,,,ahead_image_21_WHI.jpg,ahead,21,image,,,,,,,,,,,,,,,,,0,182,182,182,,,,,,,,,,,f,2.18351081038,2018_Jul_20_1137,59.8823435095,Arrows_VVA_Direction,1001,Whi,
,,,,,right_image_17_WHI.jpg,right,17,image,,,,,,,,,,,,,,,,,0,183,183,183,,,,,,,,,,,a,2.01717979051,2018_Jul_20_1137,59.8823435095,Arrows_VVA_Direction,1001,Whi,
,,,,,right_image_12_WHI.jpg,right,12,image,,,,,,,,,,,,,,,,,0,184,184,184,,,,,,,,,,,f,3.58286742168,2018_Jul_20_1137,59.8823435095,Arrows_VVA_Direction,1001,Whi,
,,,,,left_image_2_WHI.jpg,left,2,image,,,,,,,,,,,,,,,,,0,185,185,185,,,,,,,,,,,f,5.36517508001,2018_Jul_20_1137,59.8823435095,Arrows_VVA_Direction,1001,Whi,
,,,,,right_image_9_WHI.jpg,right,9,image,,,,,,,,,,,,,,,,,0,186,186,186,,,,,,,,,,,f,2.53362975564,2018_Jul_20_1137,59.8823435095,Arrows_VVA_Direction,1001,Whi,
,,,,,ahead_image_6_WHI.jpg,ahead,6,image,,,,,,,,,,,,,,,,,0,187,187,187,,,,,,,,,,,a,1.61704582928,2018_Jul_20_1137,59.8823435095,Arrows_VVA_Direction,1001,Whi,
,,,,,right_image_1_WHI.jpg,right,1,image,,,,,,,,,,,,,,,,,0,188,188,188,,,,,,,,,,,a,2.36650933736,2018_Jul_20_1137,59.8823435095,Arrows_VVA_Direction,1001,Whi,
