Stimulus_Practice,Direction,Number,Background,Format,Stimulus,direction,number,format,repeat_spatial_practice.thisRepN,repeat_spatial_practice.thisTrialN,repeat_spatial_practice.thisN,repeat_spatial_practice.thisIndex,trials.thisRepN,trials.thisTrialN,trials.thisN,trials.thisIndex,trials_3.thisRepN,trials_3.thisTrialN,trials_3.thisN,trials_3.thisIndex,trials_4.thisRepN,trials_4.thisTrialN,trials_4.thisN,trials_4.thisIndex,trials_2.thisRepN,trials_2.thisTrialN,trials_2.thisN,trials_2.thisIndex,key_resp_7.keys,key_resp_7.rt,key_resp_6.keys,key_resp_6.rt,key_resp_11.keys,key_resp_11.rt,key_resp_2.keys,key_resp_2.rt,key_resp_12.keys,key_resp_12.rt,key_resp_14.keys,key_resp_14.rt,key_resp_13.keys,key_resp_13.rt,direction_response.keys,direction_response.rt,date,frameRate,expName,participant,Scr or Whi,
,,,,,,,,,,,,,,,,,,,,,,,,,,,,,d,0.541990505299,,,,,,,,,,,,,,,2018_Aug_07_0955,None,Arrows_VVA_Direction,1001,Whi,
left_word_3_WHI.jpg,left,3,_WHI,word,,,,,0,0,0,0,0,0,0,2,,,,,,,,,,,,,,,d,3.19790679705,f,1.1104654409,,,,,,,,,,,2018_Aug_07_0955,None,Arrows_VVA_Direction,1001,Whi,
right_word_2_WHI.jpg,right,2,_WHI,word,,,,,0,0,0,0,0,1,1,3,,,,,,,,,,,,,,,,,a,0.863076402573,,,,,,,,,,,2018_Aug_07_0955,None,Arrows_VVA_Direction,1001,Whi,
ahead_word_2_WHI.jpg,ahead,2,_WHI,word,,,,,0,0,0,0,0,2,2,7,,,,,,,,,,,,,,,,,f,1.13550932636,,,,,,,,,,,2018_Aug_07_0955,None,Arrows_VVA_Direction,1001,Whi,
left_word_1_WHI.jpg,left,1,_WHI,word,,,,,0,0,0,0,0,3,3,0,,,,,,,,,,,,,,,,,a,0.303264441201,,,,,,,,,,,2018_Aug_07_0955,None,Arrows_VVA_Direction,1001,Whi,
left_word_2_WHI.jpg,left,2,_WHI,word,,,,,0,0,0,0,0,4,4,5,,,,,,,,,,,,,,,,,f,0.442082217429,,,,,,,,,,,2018_Aug_07_0955,None,Arrows_VVA_Direction,1001,Whi,
right_word_1_WHI.jpg,right,1,_WHI,word,,,,,0,0,0,0,0,5,5,6,,,,,,,,,,,,,,,,,a,0.399363844888,,,,,,,,,,,2018_Aug_07_0955,None,Arrows_VVA_Direction,1001,Whi,
right_word_3_WHI.jpg,right,3,_WHI,word,,,,,0,0,0,0,0,6,6,1,,,,,,,,,,,,,,,,,f,0.365271499148,,,,,,,,,,,2018_Aug_07_0955,None,Arrows_VVA_Direction,1001,Whi,
ahead_word_1_WHI.jpg,ahead,1,_WHI,word,,,,,0,0,0,0,0,7,7,8,,,,,,,,,,,,,,,,,a,0.488427199423,,,,,,,,,,,2018_Aug_07_0955,None,Arrows_VVA_Direction,1001,Whi,
ahead_word_3_WHI.jpg,ahead,3,_WHI,word,,,,,0,0,0,0,0,8,8,4,,,,,,,,,,,,,,,,,f,0.382542846957,,,,,,,,,,,2018_Aug_07_0955,None,Arrows_VVA_Direction,1001,Whi,
ahead_image_3_WHI.jpg,ahead,3,_WHI,image,,,,,0,0,0,0,,,,,0,0,0,6,,,,,,,,,,,,,,,d,1.32617439912,f,0.372693855548,,,,,,,2018_Aug_07_0955,None,Arrows_VVA_Direction,1001,Whi,
left_image_1_WHI.jpg,left,1,_WHI,image,,,,,0,0,0,0,,,,,0,1,1,3,,,,,,,,,,,,,,,,,a,0.46096406877,,,,,,,2018_Aug_07_0955,None,Arrows_VVA_Direction,1001,Whi,
right_image_3_WHI.jpg,right,3,_WHI,image,,,,,0,0,0,0,,,,,0,2,2,4,,,,,,,,,,,,,,,,,f,0.27239515516,,,,,,,2018_Aug_07_0955,None,Arrows_VVA_Direction,1001,Whi,
left_image_3_WHI.jpg,left,3,_WHI,image,,,,,0,0,0,0,,,,,0,3,3,2,,,,,,,,,,,,,,,,,a,0.276374819223,,,,,,,2018_Aug_07_0955,None,Arrows_VVA_Direction,1001,Whi,
left_image_2_WHI.jpg,left,2,_WHI,image,,,,,0,0,0,0,,,,,0,4,4,8,,,,,,,,,,,,,,,,,f,0.274478177074,,,,,,,2018_Aug_07_0955,None,Arrows_VVA_Direction,1001,Whi,
ahead_image_1_WHI.jpg,ahead,1,_WHI,image,,,,,0,0,0,0,,,,,0,5,5,0,,,,,,,,,,,,,,,,,a,0.266544712475,,,,,,,2018_Aug_07_0955,None,Arrows_VVA_Direction,1001,Whi,
right_image_1_WHI.jpg,right,1,_WHI,image,,,,,0,0,0,0,,,,,0,6,6,5,,,,,,,,,,,,,,,,,f,0.266490933252,,,,,,,2018_Aug_07_0955,None,Arrows_VVA_Direction,1001,Whi,
ahead_image_2_WHI.jpg,ahead,2,_WHI,image,,,,,0,0,0,0,,,,,0,7,7,1,,,,,,,,,,,,,,,,,a,0.234537851531,,,,,,,2018_Aug_07_0955,None,Arrows_VVA_Direction,1001,Whi,
right_image_2_WHI.jpg,right,2,_WHI,image,,,,,0,0,0,0,,,,,0,8,8,7,,,,,,,,,,,,,,,,,f,0.267532033613,,,,,,,2018_Aug_07_0955,None,Arrows_VVA_Direction,1001,Whi,
left_schema_1_WHI.jpg,left,1,_WHI,schema,,,,,0,0,0,0,,,,,,,,,0,0,0,6,,,,,,,,,,,d,0.727526433999,,,f,0.162902256241,,,,,2018_Aug_07_0955,None,Arrows_VVA_Direction,1001,Whi,
ahead_schema_2_WHI.jpg,ahead,2,_WHI,schema,,,,,0,0,0,0,,,,,,,,,0,1,1,0,,,,,,,,,,,,,,,a,0.0841686222702,,,,,2018_Aug_07_0955,None,Arrows_VVA_Direction,1001,Whi,
left_schema_3_WHI.jpg,left,3,_WHI,schema,,,,,0,0,0,0,,,,,,,,,0,2,2,5,,,,,,,,,,,,,,,f,0.221575822216,,,,,2018_Aug_07_0955,None,Arrows_VVA_Direction,1001,Whi,
right_schema_2_WHI.jpg,right,2,_WHI,schema,,,,,0,0,0,0,,,,,,,,,0,3,3,7,,,,,,,,,,,,,,,a,0.181835013442,,,,,2018_Aug_07_0955,None,Arrows_VVA_Direction,1001,Whi,
right_schema_1_WHI.jpg,right,1,_WHI,schema,,,,,0,0,0,0,,,,,,,,,0,4,4,1,,,,,,,,,,,,,,,f,0.0842269172426,,,,,2018_Aug_07_0955,None,Arrows_VVA_Direction,1001,Whi,
left_schema_2_WHI.jpg,left,2,_WHI,schema,,,,,0,0,0,0,,,,,,,,,0,5,5,8,,,,,,,,,,,,,,,a,0.112995117903,,,,,2018_Aug_07_0955,None,Arrows_VVA_Direction,1001,Whi,
ahead_schema_1_WHI.jpg,ahead,1,_WHI,schema,,,,,0,0,0,0,,,,,,,,,0,6,6,4,,,,,,,,,,,,,,,f,0.0336489751935,,,,,2018_Aug_07_0955,None,Arrows_VVA_Direction,1001,Whi,
right_schema_3_WHI.jpg,right,3,_WHI,schema,,,,,0,0,0,0,,,,,,,,,0,7,7,2,,,,,,,,,,,,,,,a,0.0897936846595,,,,,2018_Aug_07_0955,None,Arrows_VVA_Direction,1001,Whi,
ahead_schema_3_WHI.jpg,ahead,3,_WHI,schema,,,,,0,0,0,0,,,,,,,,,0,8,8,3,,,,,,,,,,,,,,,f,0.0849753108341,,,,,2018_Aug_07_0955,None,Arrows_VVA_Direction,1001,Whi,
left_image_3_WHI.jpg,left,3,_WHI,image,,,,,1,0,1,0,0,0,0,2,,,,,,,,,,,,,,,d,0.789547039196,f,0.629130943911,,,,,,,,,,,2018_Aug_07_0955,None,Arrows_VVA_Direction,1001,Whi,
left_image_1_WHI.jpg,left,1,_WHI,image,,,,,1,0,1,0,0,1,1,3,,,,,,,,,,,,,,,,,a,0.152307334822,,,,,,,,,,,2018_Aug_07_0955,None,Arrows_VVA_Direction,1001,Whi,
right_image_3_WHI.jpg,right,3,_WHI,image,,,,,1,0,1,0,0,2,2,4,,,,,,,,,,,,,,,,,f,0.0664448717143,,,,,,,,,,,2018_Aug_07_0955,None,Arrows_VVA_Direction,1001,Whi,
ahead_image_3_WHI.jpg,ahead,3,_WHI,image,,,,,1,0,1,0,0,3,3,6,,,,,,,,,,,,,,,,,a,0.105644603726,,,,,,,,,,,2018_Aug_07_0955,None,Arrows_VVA_Direction,1001,Whi,
right_image_2_WHI.jpg,right,2,_WHI,image,,,,,1,0,1,0,0,4,4,7,,,,,,,,,,,,,,,,,a,0.101311474573,,,,,,,,,,,2018_Aug_07_0955,None,Arrows_VVA_Direction,1001,Whi,
ahead_image_1_WHI.jpg,ahead,1,_WHI,image,,,,,1,0,1,0,0,5,5,0,,,,,,,,,,,,,,,,,f,0.0207793146838,,,,,,,,,,,2018_Aug_07_0955,None,Arrows_VVA_Direction,1001,Whi,
ahead_image_2_WHI.jpg,ahead,2,_WHI,image,,,,,1,0,1,0,0,6,6,1,,,,,,,,,,,,,,,,,a,0.0428563100286,,,,,,,,,,,2018_Aug_07_0955,None,Arrows_VVA_Direction,1001,Whi,
right_image_1_WHI.jpg,right,1,_WHI,image,,,,,1,0,1,0,0,7,7,5,,,,,,,,,,,,,,,,,f,0.0318024177104,,,,,,,,,,,2018_Aug_07_0955,None,Arrows_VVA_Direction,1001,Whi,
left_image_2_WHI.jpg,left,2,_WHI,image,,,,,1,0,1,0,0,8,8,8,,,,,,,,,,,,,,,,,a,0.0211873799562,,,,,,,,,,,2018_Aug_07_0955,None,Arrows_VVA_Direction,1001,Whi,
ahead_word_3_WHI.jpg,ahead,3,_WHI,word,,,,,1,0,1,0,,,,,0,0,0,4,,,,,,,,,,,,,,,d,0.65275316895,f,0.249925694196,,,,,,,2018_Aug_07_0955,None,Arrows_VVA_Direction,1001,Whi,
right_word_3_WHI.jpg,right,3,_WHI,word,,,,,1,0,1,0,,,,,0,1,1,1,,,,,,,,,,,,,,,,,f,0.192011195933,,,,,,,2018_Aug_07_0955,None,Arrows_VVA_Direction,1001,Whi,
left_word_2_WHI.jpg,left,2,_WHI,word,,,,,1,0,1,0,,,,,0,2,2,5,,,,,,,,,,,,,,,,,a,0.156621579779,,,,,,,2018_Aug_07_0955,None,Arrows_VVA_Direction,1001,Whi,
right_word_2_WHI.jpg,right,2,_WHI,word,,,,,1,0,1,0,,,,,0,3,3,3,,,,,,,,,,,,,,,,,f,0.0208667570259,,,,,,,2018_Aug_07_0955,None,Arrows_VVA_Direction,1001,Whi,
left_word_1_WHI.jpg,left,1,_WHI,word,,,,,1,0,1,0,,,,,0,4,4,0,,,,,,,,,,,,,,,,,a,0.088527204236,,,,,,,2018_Aug_07_0955,None,Arrows_VVA_Direction,1001,Whi,
right_word_1_WHI.jpg,right,1,_WHI,word,,,,,1,0,1,0,,,,,0,5,5,6,,,,,,,,,,,,,,,,,f,0.0627661251929,,,,,,,2018_Aug_07_0955,None,Arrows_VVA_Direction,1001,Whi,
ahead_word_2_WHI.jpg,ahead,2,_WHI,word,,,,,1,0,1,0,,,,,0,6,6,7,,,,,,,,,,,,,,,,,a,0.00135720754042,,,,,,,2018_Aug_07_0955,None,Arrows_VVA_Direction,1001,Whi,
left_word_3_WHI.jpg,left,3,_WHI,word,,,,,1,0,1,0,,,,,0,7,7,2,,,,,,,,,,,,,,,,,f,0.0552538626362,,,,,,,2018_Aug_07_0955,None,Arrows_VVA_Direction,1001,Whi,
ahead_word_1_WHI.jpg,ahead,1,_WHI,word,,,,,1,0,1,0,,,,,0,8,8,8,,,,,,,,,,,,,,,,,a,0.0608066720888,,,,,,,2018_Aug_07_0955,None,Arrows_VVA_Direction,1001,Whi,
right_schema_3_WHI.jpg,right,3,_WHI,schema,,,,,1,0,1,0,,,,,,,,,0,0,0,2,,,,,,,,,,,d,0.470546216471,,,f,0.192232060246,,,,,2018_Aug_07_0955,None,Arrows_VVA_Direction,1001,Whi,
left_schema_3_WHI.jpg,left,3,_WHI,schema,,,,,1,0,1,0,,,,,,,,,0,1,1,5,,,,,,,,,,,,,,,a,0.061073515797,,,,,2018_Aug_07_0955,None,Arrows_VVA_Direction,1001,Whi,
ahead_schema_3_WHI.jpg,ahead,3,_WHI,schema,,,,,1,0,1,0,,,,,,,,,0,2,2,3,,,,,,,,,,,,,,,f,0.0212604540866,,,,,2018_Aug_07_0955,None,Arrows_VVA_Direction,1001,Whi,
right_schema_1_WHI.jpg,right,1,_WHI,schema,,,,,1,0,1,0,,,,,,,,,0,3,3,1,,,,,,,,,,,,,,,a,0.0337384704035,,,,,2018_Aug_07_0955,None,Arrows_VVA_Direction,1001,Whi,
ahead_schema_1_WHI.jpg,ahead,1,_WHI,schema,,,,,1,0,1,0,,,,,,,,,0,4,4,4,,,,,,,,,,,,,,,f,0.0323352837004,,,,,2018_Aug_07_0955,None,Arrows_VVA_Direction,1001,Whi,
ahead_schema_2_WHI.jpg,ahead,2,_WHI,schema,,,,,1,0,1,0,,,,,,,,,0,5,5,0,,,,,,,,,,,,,,,a,0.0435919773299,,,,,2018_Aug_07_0955,None,Arrows_VVA_Direction,1001,Whi,
left_schema_2_WHI.jpg,left,2,_WHI,schema,,,,,1,0,1,0,,,,,,,,,0,6,6,8,,,,,,,,,,,,,,,f,0.0535468847957,,,,,2018_Aug_07_0955,None,Arrows_VVA_Direction,1001,Whi,
left_schema_1_WHI.jpg,left,1,_WHI,schema,,,,,1,0,1,0,,,,,,,,,0,7,7,6,,,,,,,,,,,,,,,a,0.0322383989114,,,,,2018_Aug_07_0955,None,Arrows_VVA_Direction,1001,Whi,
right_schema_2_WHI.jpg,right,2,_WHI,schema,,,,,1,0,1,0,,,,,,,,,0,8,8,7,,,,,,,,,,,,,,,f,0.00134037574753,,,,,2018_Aug_07_0955,None,Arrows_VVA_Direction,1001,Whi,
,,,,,,,,,,,,,,,,,,,,,,,,,,,,,,,,,,,,,,,,,d,0.402418588055,,,2018_Aug_07_0955,None,Arrows_VVA_Direction,1001,Whi,
,,,,,left_schema_5_WHI.jpg,left,5,schema,,,,,,,,,,,,,,,,,0,0,0,0,,,,,,,,,,,,,,,f,0.0660244906321,2018_Aug_07_0955,None,Arrows_VVA_Direction,1001,Whi,
,,,,,ahead_schema_6_WHI.jpg,ahead,6,schema,,,,,,,,,,,,,,,,,0,1,1,1,,,,,,,,,,,,,,,a,0.106539556058,2018_Aug_07_0955,None,Arrows_VVA_Direction,1001,Whi,
,,,,,left_schema_4_WHI.jpg,left,4,schema,,,,,,,,,,,,,,,,,0,2,2,2,,,,,,,,,,,,,,,f,0.00100661604665,2018_Aug_07_0955,None,Arrows_VVA_Direction,1001,Whi,
,,,,,left_schema_15_WHI.jpg,left,15,schema,,,,,,,,,,,,,,,,,0,3,3,3,,,,,,,,,,,,,,,a,0.0319239341188,2018_Aug_07_0955,None,Arrows_VVA_Direction,1001,Whi,
,,,,,ahead_schema_7_WHI.jpg,ahead,7,schema,,,,,,,,,,,,,,,,,0,4,4,4,,,,,,,,,,,,,,,f,0.0618941623252,2018_Aug_07_0955,None,Arrows_VVA_Direction,1001,Whi,
,,,,,left_schema_14_WHI.jpg,left,14,schema,,,,,,,,,,,,,,,,,0,5,5,5,,,,,,,,,,,,,,,a,0.0745162742678,2018_Aug_07_0955,None,Arrows_VVA_Direction,1001,Whi,
,,,,,left_schema_6_WHI.jpg,left,6,schema,,,,,,,,,,,,,,,,,0,6,6,6,,,,,,,,,,,,,,,f,0.0545814167708,2018_Aug_07_0955,None,Arrows_VVA_Direction,1001,Whi,
,,,,,ahead_schema_13_WHI.jpg,ahead,13,schema,,,,,,,,,,,,,,,,,0,7,7,7,,,,,,,,,,,,,,,a,0.0633905390278,2018_Aug_07_0955,None,Arrows_VVA_Direction,1001,Whi,
,,,,,ahead_schema_10_WHI.jpg,ahead,10,schema,,,,,,,,,,,,,,,,,0,8,8,8,,,,,,,,,,,,,,,f,0.0880600225646,2018_Aug_07_0955,None,Arrows_VVA_Direction,1001,Whi,
,,,,,right_schema_7_WHI.jpg,right,7,schema,,,,,,,,,,,,,,,,,0,9,9,9,,,,,,,,,,,,,,,a,0.040817625355,2018_Aug_07_0955,None,Arrows_VVA_Direction,1001,Whi,
,,,,,right_schema_21_WHI.jpg,right,21,schema,,,,,,,,,,,,,,,,,0,10,10,10,,,,,,,,,,,,,,,f,0.062994789565,2018_Aug_07_0955,None,Arrows_VVA_Direction,1001,Whi,
,,,,,right_schema_20_WHI.jpg,right,20,schema,,,,,,,,,,,,,,,,,0,11,11,11,,,,,,,,,,,,,,,a,0.377593103563,2018_Aug_07_0955,None,Arrows_VVA_Direction,1001,Whi,
,,,,,right_schema_14_WHI.jpg,right,14,schema,,,,,,,,,,,,,,,,,0,12,12,12,,,,,,,,,,,,,,,f,0.293103448115,2018_Aug_07_0955,None,Arrows_VVA_Direction,1001,Whi,
,,,,,right_schema_16_WHI.jpg,right,16,schema,,,,,,,,,,,,,,,,,0,13,13,13,,,,,,,,,,,,,,,f,0.6822767423,2018_Aug_07_0955,None,Arrows_VVA_Direction,1001,Whi,
,,,,,ahead_schema_14_WHI.jpg,ahead,14,schema,,,,,,,,,,,,,,,,,0,14,14,14,,,,,,,,,,,,,,,a,0.234291534405,2018_Aug_07_0955,None,Arrows_VVA_Direction,1001,Whi,
,,,,,right_schema_13_WHI.jpg,right,13,schema,,,,,,,,,,,,,,,,,0,15,15,15,,,,,,,,,,,,,,,f,0.564261680935,2018_Aug_07_0955,None,Arrows_VVA_Direction,1001,Whi,
,,,,,ahead_schema_17_WHI.jpg,ahead,17,schema,,,,,,,,,,,,,,,,,0,16,16,16,,,,,,,,,,,,,,,a,0.125067532063,2018_Aug_07_0955,None,Arrows_VVA_Direction,1001,Whi,
,,,,,left_schema_17_WHI.jpg,left,17,schema,,,,,,,,,,,,,,,,,0,17,17,17,,,,,,,,,,,,,,,f,0.09423519345,2018_Aug_07_0955,None,Arrows_VVA_Direction,1001,Whi,
,,,,,ahead_schema_1_WHI.jpg,ahead,1,schema,,,,,,,,,,,,,,,,,0,18,18,18,,,,,,,,,,,,,,,a,0.0412285642233,2018_Aug_07_0955,None,Arrows_VVA_Direction,1001,Whi,
,,,,,right_schema_10_WHI.jpg,right,10,schema,,,,,,,,,,,,,,,,,0,19,19,19,,,,,,,,,,,,,,,f,0.10168382409,2018_Aug_07_0955,None,Arrows_VVA_Direction,1001,Whi,
,,,,,ahead_image_6_WHI.jpg,ahead,6,image,,,,,,,,,,,,,,,,,0,20,20,20,,,,,,,,,,,,,,,a,0.00371364154853,2018_Aug_07_0955,None,Arrows_VVA_Direction,1001,Whi,
,,,,,left_image_2_WHI.jpg,left,2,image,,,,,,,,,,,,,,,,,0,21,21,21,,,,,,,,,,,,,,,f,1.05648134323,2018_Aug_07_0955,None,Arrows_VVA_Direction,1001,Whi,
,,,,,right_image_10_WHI.jpg,right,10,image,,,,,,,,,,,,,,,,,0,22,22,22,,,,,,,,,,,,,,,a,0.000848973169923,2018_Aug_07_0955,None,Arrows_VVA_Direction,1001,Whi,
,,,,,left_image_12_WHI.jpg,left,12,image,,,,,,,,,,,,,,,,,0,23,23,23,,,,,,,,,,,,,,,f,0.0428049941547,2018_Aug_07_0955,None,Arrows_VVA_Direction,1001,Whi,
,,,,,left_image_8_WHI.jpg,left,8,image,,,,,,,,,,,,,,,,,0,24,24,24,,,,,,,,,,,,,,,a,0.051996728871,2018_Aug_07_0955,None,Arrows_VVA_Direction,1001,Whi,
,,,,,ahead_image_9_WHI.jpg,ahead,9,image,,,,,,,,,,,,,,,,,0,25,25,25,,,,,,,,,,,,,,,f,0.0020871271845,2018_Aug_07_0955,None,Arrows_VVA_Direction,1001,Whi,
,,,,,ahead_image_19_WHI.jpg,ahead,19,image,,,,,,,,,,,,,,,,,0,26,26,26,,,,,,,,,,,,,,,a,0.000891257543117,2018_Aug_07_0955,None,Arrows_VVA_Direction,1001,Whi,
,,,,,ahead_image_21_WHI.jpg,ahead,21,image,,,,,,,,,,,,,,,,,0,27,27,27,,,,,,,,,,,,,,,a,0.0945644374005,2018_Aug_07_0955,None,Arrows_VVA_Direction,1001,Whi,
,,,,,right_image_2_WHI.jpg,right,2,image,,,,,,,,,,,,,,,,,0,28,28,28,,,,,,,,,,,,,,,f,0.0489764702506,2018_Aug_07_0955,None,Arrows_VVA_Direction,1001,Whi,
,,,,,right_image_16_WHI.jpg,right,16,image,,,,,,,,,,,,,,,,,0,29,29,29,,,,,,,,,,,,,,,a,0.032768801786,2018_Aug_07_0955,None,Arrows_VVA_Direction,1001,Whi,
,,,,,left_image_13_WHI.jpg,left,13,image,,,,,,,,,,,,,,,,,0,30,30,30,,,,,,,,,,,,,,,f,0.0606555975974,2018_Aug_07_0955,None,Arrows_VVA_Direction,1001,Whi,
,,,,,left_image_15_WHI.jpg,left,15,image,,,,,,,,,,,,,,,,,0,31,31,31,,,,,,,,,,,,,,,a,0.426380320219,2018_Aug_07_0955,None,Arrows_VVA_Direction,1001,Whi,
,,,,,left_image_14_WHI.jpg,left,14,image,,,,,,,,,,,,,,,,,0,32,32,32,,,,,,,,,,,,,,,f,0.00138799706474,2018_Aug_07_0955,None,Arrows_VVA_Direction,1001,Whi,
,,,,,ahead_image_1_WHI.jpg,ahead,1,image,,,,,,,,,,,,,,,,,0,33,33,33,,,,,,,,,,,,,,,a,0.0531014613807,2018_Aug_07_0955,None,Arrows_VVA_Direction,1001,Whi,
,,,,,ahead_image_18_WHI.jpg,ahead,18,image,,,,,,,,,,,,,,,,,0,34,34,34,,,,,,,,,,,,,,,f,0.453412395669,2018_Aug_07_0955,None,Arrows_VVA_Direction,1001,Whi,
,,,,,ahead_image_10_WHI.jpg,ahead,10,image,,,,,,,,,,,,,,,,,0,35,35,35,,,,,,,,,,,,,,,a,0.0868029841222,2018_Aug_07_0955,None,Arrows_VVA_Direction,1001,Whi,
,,,,,right_image_15_WHI.jpg,right,15,image,,,,,,,,,,,,,,,,,0,36,36,36,,,,,,,,,,,,,,,f,0.258312793216,2018_Aug_07_0955,None,Arrows_VVA_Direction,1001,Whi,
,,,,,right_image_14_WHI.jpg,right,14,image,,,,,,,,,,,,,,,,,0,37,37,37,,,,,,,,,,,,,,,a,0.0321825670544,2018_Aug_07_0955,None,Arrows_VVA_Direction,1001,Whi,
,,,,,right_image_7_WHI.jpg,right,7,image,,,,,,,,,,,,,,,,,0,38,38,38,,,,,,,,,,,,,,,a,0.335755315144,2018_Aug_07_0955,None,Arrows_VVA_Direction,1001,Whi,
,,,,,right_image_17_WHI.jpg,right,17,image,,,,,,,,,,,,,,,,,0,39,39,39,,,,,,,,,,,,,,,a,0.15257869428,2018_Aug_07_0955,None,Arrows_VVA_Direction,1001,Whi,
,,,,,left_word_17_WHI.jpg,left,17,word,,,,,,,,,,,,,,,,,0,40,40,40,,,,,,,,,,,,,,,f,0.983399455901,2018_Aug_07_0955,None,Arrows_VVA_Direction,1001,Whi,
,,,,,right_word_16_WHI.jpg,right,16,word,,,,,,,,,,,,,,,,,0,41,41,41,,,,,,,,,,,,,,,a,0.0591021575965,2018_Aug_07_0955,None,Arrows_VVA_Direction,1001,Whi,
,,,,,ahead_word_2_WHI.jpg,ahead,2,word,,,,,,,,,,,,,,,,,0,42,42,42,,,,,,,,,,,,,,,f,0.384587279055,2018_Aug_07_0955,None,Arrows_VVA_Direction,1001,Whi,
,,,,,ahead_word_8_WHI.jpg,ahead,8,word,,,,,,,,,,,,,,,,,0,43,43,43,,,,,,,,,,,,,,,f,0.0636208455544,2018_Aug_07_0955,None,Arrows_VVA_Direction,1001,Whi,
,,,,,right_word_20_WHI.jpg,right,20,word,,,,,,,,,,,,,,,,,0,44,44,44,,,,,,,,,,,,,,,a,0.0902099607047,2018_Aug_07_0955,None,Arrows_VVA_Direction,1001,Whi,
,,,,,left_word_4_WHI.jpg,left,4,word,,,,,,,,,,,,,,,,,0,45,45,45,,,,,,,,,,,,,,,f,0.0625165237579,2018_Aug_07_0955,None,Arrows_VVA_Direction,1001,Whi,
,,,,,left_word_19_WHI.jpg,left,19,word,,,,,,,,,,,,,,,,,0,46,46,46,,,,,,,,,,,,,,,a,0.0320429874118,2018_Aug_07_0955,None,Arrows_VVA_Direction,1001,Whi,
,,,,,ahead_word_3_WHI.jpg,ahead,3,word,,,,,,,,,,,,,,,,,0,47,47,47,,,,,,,,,,,,,,,f,0.0619701100513,2018_Aug_07_0955,None,Arrows_VVA_Direction,1001,Whi,
,,,,,ahead_word_16_WHI.jpg,ahead,16,word,,,,,,,,,,,,,,,,,0,48,48,48,,,,,,,,,,,,,,,a,0.0549463767093,2018_Aug_07_0955,None,Arrows_VVA_Direction,1001,Whi,
,,,,,right_word_18_WHI.jpg,right,18,word,,,,,,,,,,,,,,,,,0,49,49,49,,,,,,,,,,,,,,,a,0.123452923028,2018_Aug_07_0955,None,Arrows_VVA_Direction,1001,Whi,
,,,,,left_word_21_WHI.jpg,left,21,word,,,,,,,,,,,,,,,,,0,50,50,50,,,,,,,,,,,,,,,f,0.0915191364475,2018_Aug_07_0955,None,Arrows_VVA_Direction,1001,Whi,
,,,,,left_word_1_WHI.jpg,left,1,word,,,,,,,,,,,,,,,,,0,51,51,51,,,,,,,,,,,,,,,f,0.121430248721,2018_Aug_07_0955,None,Arrows_VVA_Direction,1001,Whi,
,,,,,ahead_word_6_WHI.jpg,ahead,6,word,,,,,,,,,,,,,,,,,0,52,52,52,,,,,,,,,,,,,,,f,0.125599166378,2018_Aug_07_0955,None,Arrows_VVA_Direction,1001,Whi,
,,,,,left_word_15_WHI.jpg,left,15,word,,,,,,,,,,,,,,,,,0,53,53,53,,,,,,,,,,,,,,,a,0.000765635864809,2018_Aug_07_0955,None,Arrows_VVA_Direction,1001,Whi,
,,,,,right_word_5_WHI.jpg,right,5,word,,,,,,,,,,,,,,,,,0,54,54,54,,,,,,,,,,,,,,,f,0.423176965909,2018_Aug_07_0955,None,Arrows_VVA_Direction,1001,Whi,
,,,,,left_word_6_WHI.jpg,left,6,word,,,,,,,,,,,,,,,,,0,55,55,55,,,,,,,,,,,,,,,a,0.245333521627,2018_Aug_07_0955,None,Arrows_VVA_Direction,1001,Whi,
,,,,,right_word_12_WHI.jpg,right,12,word,,,,,,,,,,,,,,,,,0,56,56,56,,,,,,,,,,,,,,,f,0.19076195755,2018_Aug_07_0955,None,Arrows_VVA_Direction,1001,Whi,
,,,,,right_word_1_WHI.jpg,right,1,word,,,,,,,,,,,,,,,,,0,57,57,57,,,,,,,,,,,,,,,a,0.238223166671,2018_Aug_07_0955,None,Arrows_VVA_Direction,1001,Whi,
,,,,,ahead_word_13_WHI.jpg,ahead,13,word,,,,,,,,,,,,,,,,,0,58,58,58,,,,,,,,,,,,,,,f,0.224993883166,2018_Aug_07_0955,None,Arrows_VVA_Direction,1001,Whi,
,,,,,right_word_19_WHI.jpg,right,19,word,,,,,,,,,,,,,,,,,0,59,59,59,,,,,,,,,,,,,,,a,0.25273494143,2018_Aug_07_0955,None,Arrows_VVA_Direction,1001,Whi,
,,,,,right_word_13_WHI.jpg,right,13,word,,,,,,,,,,,,,,,,,0,60,60,60,,,,,,,,,,,,,,,f,0.285182709806,2018_Aug_07_0955,None,Arrows_VVA_Direction,1001,Whi,
,,,,,ahead_word_12_WHI.jpg,ahead,12,word,,,,,,,,,,,,,,,,,0,61,61,61,,,,,,,,,,,,,,,a,0.360414535273,2018_Aug_07_0955,None,Arrows_VVA_Direction,1001,Whi,
,,,,,right_word_14_WHI.jpg,right,14,word,,,,,,,,,,,,,,,,,0,62,62,62,,,,,,,,,,,,,,,f,0.326722454745,2018_Aug_07_0955,None,Arrows_VVA_Direction,1001,Whi,
,,,,,right_word_8_WHI.jpg,right,8,word,,,,,,,,,,,,,,,,,0,63,63,63,,,,,,,,,,,,,,,f,0.328770171385,2018_Aug_07_0955,None,Arrows_VVA_Direction,1001,Whi,
,,,,,right_word_2_WHI.jpg,right,2,word,,,,,,,,,,,,,,,,,0,64,64,64,,,,,,,,,,,,,,,a,0.184127405053,2018_Aug_07_0955,None,Arrows_VVA_Direction,1001,Whi,
,,,,,left_word_10_WHI.jpg,left,10,word,,,,,,,,,,,,,,,,,0,65,65,65,,,,,,,,,,,,,,,f,0.00102262687869,2018_Aug_07_0955,None,Arrows_VVA_Direction,1001,Whi,
,,,,,left_word_13_WHI.jpg,left,13,word,,,,,,,,,,,,,,,,,0,66,66,66,,,,,,,,,,,,,,,a,0.04256401374,2018_Aug_07_0955,None,Arrows_VVA_Direction,1001,Whi,
,,,,,right_word_11_WHI.jpg,right,11,word,,,,,,,,,,,,,,,,,0,67,67,67,,,,,,,,,,,,,,,f,0.0880284118466,2018_Aug_07_0955,None,Arrows_VVA_Direction,1001,Whi,
,,,,,left_word_5_WHI.jpg,left,5,word,,,,,,,,,,,,,,,,,0,68,68,68,,,,,,,,,,,,,,,a,0.132479625288,2018_Aug_07_0955,None,Arrows_VVA_Direction,1001,Whi,
,,,,,ahead_word_18_WHI.jpg,ahead,18,word,,,,,,,,,,,,,,,,,0,69,69,69,,,,,,,,,,,,,,,f,0.000579255633056,2018_Aug_07_0955,None,Arrows_VVA_Direction,1001,Whi,
,,,,,ahead_word_20_WHI.jpg,ahead,20,word,,,,,,,,,,,,,,,,,0,70,70,70,,,,,,,,,,,,,,,a,0.0409645943437,2018_Aug_07_0955,None,Arrows_VVA_Direction,1001,Whi,
,,,,,ahead_word_14_WHI.jpg,ahead,14,word,,,,,,,,,,,,,,,,,0,71,71,71,,,,,,,,,,,,,,,f,0.0924600677099,2018_Aug_07_0955,None,Arrows_VVA_Direction,1001,Whi,
,,,,,left_word_9_WHI.jpg,left,9,word,,,,,,,,,,,,,,,,,0,72,72,72,,,,,,,,,,,,,,,f,0.218392173061,2018_Aug_07_0955,None,Arrows_VVA_Direction,1001,Whi,
,,,,,left_word_16_WHI.jpg,left,16,word,,,,,,,,,,,,,,,,,0,73,73,73,,,,,,,,,,,,,,,a,0.000607582274824,2018_Aug_07_0955,None,Arrows_VVA_Direction,1001,Whi,
,,,,,ahead_word_19_WHI.jpg,ahead,19,word,,,,,,,,,,,,,,,,,0,74,74,74,,,,,,,,,,,,,,,f,0.277496793773,2018_Aug_07_0955,None,Arrows_VVA_Direction,1001,Whi,
,,,,,right_word_10_WHI.jpg,right,10,word,,,,,,,,,,,,,,,,,0,75,75,75,,,,,,,,,,,,,,,a,0.252677467419,2018_Aug_07_0955,None,Arrows_VVA_Direction,1001,Whi,
,,,,,ahead_word_7_WHI.jpg,ahead,7,word,,,,,,,,,,,,,,,,,0,76,76,76,,,,,,,,,,,,,,,f,0.394320501247,2018_Aug_07_0955,None,Arrows_VVA_Direction,1001,Whi,
,,,,,ahead_word_21_WHI.jpg,ahead,21,word,,,,,,,,,,,,,,,,,0,77,77,77,,,,,,,,,,,,,,,a,0.2717649939,2018_Aug_07_0955,None,Arrows_VVA_Direction,1001,Whi,
,,,,,left_word_3_WHI.jpg,left,3,word,,,,,,,,,,,,,,,,,0,78,78,78,,,,,,,,,,,,,,,f,0.400872537401,2018_Aug_07_0955,None,Arrows_VVA_Direction,1001,Whi,
,,,,,right_word_4_WHI.jpg,right,4,word,,,,,,,,,,,,,,,,,0,79,79,79,,,,,,,,,,,,,,,a,0.344785712194,2018_Aug_07_0955,None,Arrows_VVA_Direction,1001,Whi,
,,,,,left_image_3_WHI.jpg,left,3,image,,,,,,,,,,,,,,,,,0,80,80,80,,,,,,,,,,,,,,,f,0.887407610426,2018_Aug_07_0955,None,Arrows_VVA_Direction,1001,Whi,
,,,,,left_image_20_WHI.jpg,left,20,image,,,,,,,,,,,,,,,,,0,81,81,81,,,,,,,,,,,,,,,f,0.615089224419,2018_Aug_07_0955,None,Arrows_VVA_Direction,1001,Whi,
,,,,,left_image_17_WHI.jpg,left,17,image,,,,,,,,,,,,,,,,,0,82,82,82,,,,,,,,,,,,,,,f,0.448553379392,2018_Aug_07_0955,None,Arrows_VVA_Direction,1001,Whi,
,,,,,right_image_20_WHI.jpg,right,20,image,,,,,,,,,,,,,,,,,0,83,83,83,,,,,,,,,,,,,,,f,0.269257485168,2018_Aug_07_0955,None,Arrows_VVA_Direction,1001,Whi,
,,,,,ahead_image_15_WHI.jpg,ahead,15,image,,,,,,,,,,,,,,,,,0,84,84,84,,,,,,,,,,,,,,,f,0.349430022296,2018_Aug_07_0955,None,Arrows_VVA_Direction,1001,Whi,
,,,,,ahead_image_13_WHI.jpg,ahead,13,image,,,,,,,,,,,,,,,,,0,85,85,85,,,,,,,,,,,,,,,a,0.106023521628,2018_Aug_07_0955,None,Arrows_VVA_Direction,1001,Whi,
,,,,,right_image_9_WHI.jpg,right,9,image,,,,,,,,,,,,,,,,,0,86,86,86,,,,,,,,,,,,,,,f,0.063175011659,2018_Aug_07_0955,None,Arrows_VVA_Direction,1001,Whi,
,,,,,ahead_image_11_WHI.jpg,ahead,11,image,,,,,,,,,,,,,,,,,0,87,87,87,,,,,,,,,,,,,,,a,0.0632107276469,2018_Aug_07_0955,None,Arrows_VVA_Direction,1001,Whi,
,,,,,right_image_13_WHI.jpg,right,13,image,,,,,,,,,,,,,,,,,0,88,88,88,,,,,,,,,,,,,,,f,0.0208811257035,2018_Aug_07_0955,None,Arrows_VVA_Direction,1001,Whi,
,,,,,left_image_11_WHI.jpg,left,11,image,,,,,,,,,,,,,,,,,0,89,89,89,,,,,,,,,,,,,,,a,0.0436777777504,2018_Aug_07_0955,None,Arrows_VVA_Direction,1001,Whi,
,,,,,right_image_19_WHI.jpg,right,19,image,,,,,,,,,,,,,,,,,0,90,90,90,,,,,,,,,,,,,,,f,0.0433403232601,2018_Aug_07_0955,None,Arrows_VVA_Direction,1001,Whi,
,,,,,left_image_16_WHI.jpg,left,16,image,,,,,,,,,,,,,,,,,0,91,91,91,,,,,,,,,,,,,,,a,0.0624738286715,2018_Aug_07_0955,None,Arrows_VVA_Direction,1001,Whi,
,,,,,ahead_image_14_WHI.jpg,ahead,14,image,,,,,,,,,,,,,,,,,0,92,92,92,,,,,,,,,,,,,,,f,0.0315376266371,2018_Aug_07_0955,None,Arrows_VVA_Direction,1001,Whi,
,,,,,ahead_image_20_WHI.jpg,ahead,20,image,,,,,,,,,,,,,,,,,0,93,93,93,,,,,,,,,,,,,,,a,0.0387226976454,2018_Aug_07_0955,None,Arrows_VVA_Direction,1001,Whi,
,,,,,ahead_image_3_WHI.jpg,ahead,3,image,,,,,,,,,,,,,,,,,0,94,94,94,,,,,,,,,,,,,,,f,0.0473930614535,2018_Aug_07_0955,None,Arrows_VVA_Direction,1001,Whi,
,,,,,left_image_21_WHI.jpg,left,21,image,,,,,,,,,,,,,,,,,0,95,95,95,,,,,,,,,,,,,,,a,0.0828003303614,2018_Aug_07_0955,None,Arrows_VVA_Direction,1001,Whi,
,,,,,right_image_11_WHI.jpg,right,11,image,,,,,,,,,,,,,,,,,0,96,96,96,,,,,,,,,,,,,,,f,0.0632090854924,2018_Aug_07_0955,None,Arrows_VVA_Direction,1001,Whi,
,,,,,ahead_image_8_WHI.jpg,ahead,8,image,,,,,,,,,,,,,,,,,0,97,97,97,,,,,,,,,,,,,,,a,0.0615624552593,2018_Aug_07_0955,None,Arrows_VVA_Direction,1001,Whi,
,,,,,left_image_6_WHI.jpg,left,6,image,,,,,,,,,,,,,,,,,0,98,98,98,,,,,,,,,,,,,,,f,0.0359852930997,2018_Aug_07_0955,None,Arrows_VVA_Direction,1001,Whi,
,,,,,right_image_8_WHI.jpg,right,8,image,,,,,,,,,,,,,,,,,0,99,99,99,,,,,,,,,,,,,,,a,0.0340402089059,2018_Aug_07_0955,None,Arrows_VVA_Direction,1001,Whi,
,,,,,ahead_schema_5_WHI.jpg,ahead,5,schema,,,,,,,,,,,,,,,,,0,100,100,100,,,,,,,,,,,,,,,f,0.0629093996249,2018_Aug_07_0955,None,Arrows_VVA_Direction,1001,Whi,
,,,,,right_schema_1_WHI.jpg,right,1,schema,,,,,,,,,,,,,,,,,0,101,101,101,,,,,,,,,,,,,,,a,0.0227486202493,2018_Aug_07_0955,None,Arrows_VVA_Direction,1001,Whi,
,,,,,right_schema_2_WHI.jpg,right,2,schema,,,,,,,,,,,,,,,,,0,102,102,102,,,,,,,,,,,,,,,f,0.0813897543121,2018_Aug_07_0955,None,Arrows_VVA_Direction,1001,Whi,
,,,,,left_schema_2_WHI.jpg,left,2,schema,,,,,,,,,,,,,,,,,0,103,103,103,,,,,,,,,,,,,,,a,0.384434151929,2018_Aug_07_0955,None,Arrows_VVA_Direction,1001,Whi,
,,,,,right_schema_9_WHI.jpg,right,9,schema,,,,,,,,,,,,,,,,,0,104,104,104,,,,,,,,,,,,,,,f,0.101651802892,2018_Aug_07_0955,None,Arrows_VVA_Direction,1001,Whi,
,,,,,left_schema_13_WHI.jpg,left,13,schema,,,,,,,,,,,,,,,,,0,105,105,105,,,,,,,,,,,,,,,f,0.208834246499,2018_Aug_07_0955,None,Arrows_VVA_Direction,1001,Whi,
,,,,,ahead_schema_20_WHI.jpg,ahead,20,schema,,,,,,,,,,,,,,,,,0,106,106,106,,,,,,,,,,,,,,,a,0.0645108714234,2018_Aug_07_0955,None,Arrows_VVA_Direction,1001,Whi,
,,,,,right_schema_17_WHI.jpg,right,17,schema,,,,,,,,,,,,,,,,,0,107,107,107,,,,,,,,,,,,,,,f,0.0592873059213,2018_Aug_07_0955,None,Arrows_VVA_Direction,1001,Whi,
,,,,,ahead_schema_21_WHI.jpg,ahead,21,schema,,,,,,,,,,,,,,,,,0,108,108,108,,,,,,,,,,,,,,,f,0.00232564448379,2018_Aug_07_0955,None,Arrows_VVA_Direction,1001,Whi,
,,,,,left_schema_21_WHI.jpg,left,21,schema,,,,,,,,,,,,,,,,,0,109,109,109,,,,,,,,,,,,,,,a,0.000870320713148,2018_Aug_07_0955,None,Arrows_VVA_Direction,1001,Whi,
,,,,,left_schema_10_WHI.jpg,left,10,schema,,,,,,,,,,,,,,,,,0,110,110,110,,,,,,,,,,,,,,,f,0.042521729134,2018_Aug_07_0955,None,Arrows_VVA_Direction,1001,Whi,
,,,,,left_schema_1_WHI.jpg,left,1,schema,,,,,,,,,,,,,,,,,0,111,111,111,,,,,,,,,,,,,,,a,0.0605287442449,2018_Aug_07_0955,None,Arrows_VVA_Direction,1001,Whi,
,,,,,ahead_schema_11_WHI.jpg,ahead,11,schema,,,,,,,,,,,,,,,,,0,112,112,112,,,,,,,,,,,,,,,f,0.130583804566,2018_Aug_07_0955,None,Arrows_VVA_Direction,1001,Whi,
,,,,,right_schema_19_WHI.jpg,right,19,schema,,,,,,,,,,,,,,,,,0,113,113,113,,,,,,,,,,,,,,,f,0.088593299035,2018_Aug_07_0955,None,Arrows_VVA_Direction,1001,Whi,
,,,,,left_schema_3_WHI.jpg,left,3,schema,,,,,,,,,,,,,,,,,0,114,114,114,,,,,,,,,,,,,,,a,0.0627792619634,2018_Aug_07_0955,None,Arrows_VVA_Direction,1001,Whi,
,,,,,ahead_schema_19_WHI.jpg,ahead,19,schema,,,,,,,,,,,,,,,,,0,115,115,115,,,,,,,,,,,,,,,f,0.0624483760912,2018_Aug_07_0955,None,Arrows_VVA_Direction,1001,Whi,
,,,,,right_schema_11_WHI.jpg,right,11,schema,,,,,,,,,,,,,,,,,0,116,116,116,,,,,,,,,,,,,,,a,0.0319584181998,2018_Aug_07_0955,None,Arrows_VVA_Direction,1001,Whi,
,,,,,ahead_schema_15_WHI.jpg,ahead,15,schema,,,,,,,,,,,,,,,,,0,117,117,117,,,,,,,,,,,,,,,f,0.00935225165449,2018_Aug_07_0955,None,Arrows_VVA_Direction,1001,Whi,
,,,,,ahead_schema_8_WHI.jpg,ahead,8,schema,,,,,,,,,,,,,,,,,0,118,118,118,,,,,,,,,,,,,,,a,0.000924099935219,2018_Aug_07_0955,None,Arrows_VVA_Direction,1001,Whi,
,,,,,left_schema_20_WHI.jpg,left,20,schema,,,,,,,,,,,,,,,,,0,119,119,119,,,,,,,,,,,,,,,f,0.106558029773,2018_Aug_07_0955,None,Arrows_VVA_Direction,1001,Whi,
,,,,,ahead_image_5_WHI.jpg,ahead,5,image,,,,,,,,,,,,,,,,,0,120,120,120,,,,,,,,,,,,,,,a,0.0762704627123,2018_Aug_07_0955,None,Arrows_VVA_Direction,1001,Whi,
,,,,,right_image_5_WHI.jpg,right,5,image,,,,,,,,,,,,,,,,,0,121,121,121,,,,,,,,,,,,,,,f,0.138677375391,2018_Aug_07_0955,None,Arrows_VVA_Direction,1001,Whi,
,,,,,left_image_7_WHI.jpg,left,7,image,,,,,,,,,,,,,,,,,0,122,122,122,,,,,,,,,,,,,,,f,0.295247639064,2018_Aug_07_0955,None,Arrows_VVA_Direction,1001,Whi,
,,,,,ahead_image_17_WHI.jpg,ahead,17,image,,,,,,,,,,,,,,,,,0,123,123,123,,,,,,,,,,,,,,,a,0.0654690454248,2018_Aug_07_0955,None,Arrows_VVA_Direction,1001,Whi,
,,,,,right_image_6_WHI.jpg,right,6,image,,,,,,,,,,,,,,,,,0,124,124,124,,,,,,,,,,,,,,,f,0.000749625265598,2018_Aug_07_0955,None,Arrows_VVA_Direction,1001,Whi,
,,,,,left_image_1_WHI.jpg,left,1,image,,,,,,,,,,,,,,,,,0,125,125,125,,,,,,,,,,,,,,,a,0.0442233702634,2018_Aug_07_0955,None,Arrows_VVA_Direction,1001,Whi,
,,,,,ahead_image_16_WHI.jpg,ahead,16,image,,,,,,,,,,,,,,,,,0,126,126,126,,,,,,,,,,,,,,,f,0.315721930936,2018_Aug_07_0955,None,Arrows_VVA_Direction,1001,Whi,
,,,,,left_image_4_WHI.jpg,left,4,image,,,,,,,,,,,,,,,,,0,127,127,127,,,,,,,,,,,,,,,a,0.000850615091622,2018_Aug_07_0955,None,Arrows_VVA_Direction,1001,Whi,
,,,,,left_image_10_WHI.jpg,left,10,image,,,,,,,,,,,,,,,,,0,128,128,128,,,,,,,,,,,,,,,f,0.044823563192,2018_Aug_07_0955,None,Arrows_VVA_Direction,1001,Whi,
,,,,,right_image_4_WHI.jpg,right,4,image,,,,,,,,,,,,,,,,,0,129,129,129,,,,,,,,,,,,,,,a,0.0632739490829,2018_Aug_07_0955,None,Arrows_VVA_Direction,1001,Whi,
,,,,,left_image_19_WHI.jpg,left,19,image,,,,,,,,,,,,,,,,,0,130,130,130,,,,,,,,,,,,,,,f,0.0633392229211,2018_Aug_07_0955,None,Arrows_VVA_Direction,1001,Whi,
,,,,,ahead_image_2_WHI.jpg,ahead,2,image,,,,,,,,,,,,,,,,,0,131,131,131,,,,,,,,,,,,,,,a,0.000848562689498,2018_Aug_07_0955,None,Arrows_VVA_Direction,1001,Whi,
,,,,,right_image_1_WHI.jpg,right,1,image,,,,,,,,,,,,,,,,,0,132,132,132,,,,,,,,,,,,,,,f,0.0740187135525,2018_Aug_07_0955,None,Arrows_VVA_Direction,1001,Whi,
,,,,,ahead_image_12_WHI.jpg,ahead,12,image,,,,,,,,,,,,,,,,,0,133,133,133,,,,,,,,,,,,,,,a,0.025017201202,2018_Aug_07_0955,None,Arrows_VVA_Direction,1001,Whi,
,,,,,left_image_5_WHI.jpg,left,5,image,,,,,,,,,,,,,,,,,0,134,134,134,,,,,,,,,,,,,,,f,0.0633330650162,2018_Aug_07_0955,None,Arrows_VVA_Direction,1001,Whi,
,,,,,left_image_9_WHI.jpg,left,9,image,,,,,,,,,,,,,,,,,0,135,135,135,,,,,,,,,,,,,,,a,0.00119504868053,2018_Aug_07_0955,None,Arrows_VVA_Direction,1001,Whi,
,,,,,right_image_18_WHI.jpg,right,18,image,,,,,,,,,,,,,,,,,0,136,136,136,,,,,,,,,,,,,,,f,0.0214291813318,2018_Aug_07_0955,None,Arrows_VVA_Direction,1001,Whi,
,,,,,right_image_3_WHI.jpg,right,3,image,,,,,,,,,,,,,,,,,0,137,137,137,,,,,,,,,,,,,,,a,0.0401447687764,2018_Aug_07_0955,None,Arrows_VVA_Direction,1001,Whi,
,,,,,ahead_image_4_WHI.jpg,ahead,4,image,,,,,,,,,,,,,,,,,0,138,138,138,,,,,,,,,,,,,,,f,0.06283878861,2018_Aug_07_0955,None,Arrows_VVA_Direction,1001,Whi,
,,,,,ahead_image_7_WHI.jpg,ahead,7,image,,,,,,,,,,,,,,,,,0,139,139,139,,,,,,,,,,,,,,,a,0.0318504492752,2018_Aug_07_0955,None,Arrows_VVA_Direction,1001,Whi,
,,,,,left_schema_16_WHI.jpg,left,16,schema,,,,,,,,,,,,,,,,,0,140,140,140,,,,,,,,,,,,,,,f,0.0833451019134,2018_Aug_07_0955,None,Arrows_VVA_Direction,1001,Whi,
,,,,,right_schema_12_WHI.jpg,right,12,schema,,,,,,,,,,,,,,,,,0,141,141,141,,,,,,,,,,,,,,,a,0.0708974646404,2018_Aug_07_0955,None,Arrows_VVA_Direction,1001,Whi,
,,,,,right_schema_18_WHI.jpg,right,18,schema,,,,,,,,,,,,,,,,,0,142,142,142,,,,,,,,,,,,,,,f,0.0759178188164,2018_Aug_07_0955,None,Arrows_VVA_Direction,1001,Whi,
,,,,,right_schema_4_WHI.jpg,right,4,schema,,,,,,,,,,,,,,,,,0,143,143,143,,,,,,,,,,,,,,,a,0.0939059497323,2018_Aug_07_0955,None,Arrows_VVA_Direction,1001,Whi,
,,,,,left_schema_12_WHI.jpg,left,12,schema,,,,,,,,,,,,,,,,,0,144,144,144,,,,,,,,,,,,,,,f,0.0724283258896,2018_Aug_07_0955,None,Arrows_VVA_Direction,1001,Whi,
,,,,,right_schema_8_WHI.jpg,right,8,schema,,,,,,,,,,,,,,,,,0,145,145,145,,,,,,,,,,,,,,,a,0.0216988986358,2018_Aug_07_0955,None,Arrows_VVA_Direction,1001,Whi,
,,,,,left_schema_8_WHI.jpg,left,8,schema,,,,,,,,,,,,,,,,,0,146,146,146,,,,,,,,,,,,,,,a,0.18099712464,2018_Aug_07_0955,None,Arrows_VVA_Direction,1001,Whi,
,,,,,left_schema_18_WHI.jpg,left,18,schema,,,,,,,,,,,,,,,,,0,147,147,147,,,,,,,,,,,,,,,f,0.3159834377,2018_Aug_07_0955,None,Arrows_VVA_Direction,1001,Whi,
,,,,,ahead_schema_2_WHI.jpg,ahead,2,schema,,,,,,,,,,,,,,,,,0,148,148,148,,,,,,,,,,,,,,,a,0.00101852137595,2018_Aug_07_0955,None,Arrows_VVA_Direction,1001,Whi,
,,,,,ahead_schema_9_WHI.jpg,ahead,9,schema,,,,,,,,,,,,,,,,,0,149,149,149,,,,,,,,,,,,,,,f,0.00078000430949,2018_Aug_07_0955,None,Arrows_VVA_Direction,1001,Whi,
,,,,,left_schema_19_WHI.jpg,left,19,schema,,,,,,,,,,,,,,,,,0,150,150,150,,,,,,,,,,,,,,,a,0.0620128051378,2018_Aug_07_0955,None,Arrows_VVA_Direction,1001,Whi,
,,,,,ahead_schema_3_WHI.jpg,ahead,3,schema,,,,,,,,,,,,,,,,,0,151,151,151,,,,,,,,,,,,,,,f,0.0999066459481,2018_Aug_07_0955,None,Arrows_VVA_Direction,1001,Whi,
,,,,,left_schema_11_WHI.jpg,left,11,schema,,,,,,,,,,,,,,,,,0,152,152,152,,,,,,,,,,,,,,,a,0.2043393692,2018_Aug_07_0955,None,Arrows_VVA_Direction,1001,Whi,
,,,,,right_schema_3_WHI.jpg,right,3,schema,,,,,,,,,,,,,,,,,0,153,153,153,,,,,,,,,,,,,,,a,0.0841107375454,2018_Aug_07_0955,None,Arrows_VVA_Direction,1001,Whi,
,,,,,right_schema_6_WHI.jpg,right,6,schema,,,,,,,,,,,,,,,,,0,154,154,154,,,,,,,,,,,,,,,a,0.312568661058,2018_Aug_07_0955,None,Arrows_VVA_Direction,1001,Whi,
,,,,,ahead_schema_4_WHI.jpg,ahead,4,schema,,,,,,,,,,,,,,,,,0,155,155,155,,,,,,,,,,,,,,,f,0.147789467825,2018_Aug_07_0955,None,Arrows_VVA_Direction,1001,Whi,
