Stimulus_Practice,Direction,Number,Background,Format,repeat_spatial_practice.thisRepN,repeat_spatial_practice.thisTrialN,repeat_spatial_practice.thisN,repeat_spatial_practice.thisIndex,trials.thisRepN,trials.thisTrialN,trials.thisN,trials.thisIndex,trials_3.thisRepN,trials_3.thisTrialN,trials_3.thisN,trials_3.thisIndex,trials_4.thisRepN,trials_4.thisTrialN,trials_4.thisN,trials_4.thisIndex,trials_2.thisRepN,trials_2.thisTrialN,trials_2.thisN,trials_2.thisIndex,Stimulus,direction,number,format,key_resp_7.keys,key_resp_7.rt,key_resp_6.keys,key_resp_6.rt,key_resp_11.keys,key_resp_11.rt,key_resp_2.keys,key_resp_2.rt,key_resp_12.keys,key_resp_12.rt,key_resp_14.keys,key_resp_14.rt,key_resp_13.keys,key_resp_13.rt,date,frameRate,expName,participant,Scr or Whi,
,,,,,,,,,,,,,,,,,,,,,,,,,,,,,d,68.4288200915,,,,,,,,,,,,,2018_Aug_07_0847,None,Arrows_VVA_Direction,1001,Whi,
right_schema_3_WHI.jpg,right,3,_WHI,schema,0,0,0,0,0,0,0,2,,,,,,,,,,,,,,,,,,,d,5.35009384691,f,3.44819211424,,,,,,,,,2018_Aug_07_0847,None,Arrows_VVA_Direction,1001,Whi,
left_schema_2_WHI.jpg,left,2,_WHI,schema,0,0,0,0,0,1,1,8,,,,,,,,,,,,,,,,,,,,,f,1.90099364333,,,,,,,,,2018_Aug_07_0847,None,Arrows_VVA_Direction,1001,Whi,
ahead_schema_3_WHI.jpg,ahead,3,_WHI,schema,0,0,0,0,0,2,2,3,,,,,,,,,,,,,,,,,,,,,f,0.977133557899,,,,,,,,,2018_Aug_07_0847,None,Arrows_VVA_Direction,1001,Whi,
left_schema_3_WHI.jpg,left,3,_WHI,schema,0,0,0,0,0,3,3,5,,,,,,,,,,,,,,,,,,,,,f,0.828826003242,,,,,,,,,2018_Aug_07_0847,None,Arrows_VVA_Direction,1001,Whi,
ahead_schema_2_WHI.jpg,ahead,2,_WHI,schema,0,0,0,0,0,4,4,0,,,,,,,,,,,,,,,,,,,,,f,0.548102454748,,,,,,,,,2018_Aug_07_0847,None,Arrows_VVA_Direction,1001,Whi,
left_schema_1_WHI.jpg,left,1,_WHI,schema,0,0,0,0,0,5,5,6,,,,,,,,,,,,,,,,,,,,,f,0.644017941784,,,,,,,,,2018_Aug_07_0847,None,Arrows_VVA_Direction,1001,Whi,
right_schema_2_WHI.jpg,right,2,_WHI,schema,0,0,0,0,0,6,6,7,,,,,,,,,,,,,,,,,,,,,f,0.485352340387,,,,,,,,,2018_Aug_07_0847,None,Arrows_VVA_Direction,1001,Whi,
ahead_schema_1_WHI.jpg,ahead,1,_WHI,schema,0,0,0,0,0,7,7,4,,,,,,,,,,,,,,,,,,,,,f,0.656681927387,,,,,,,,,2018_Aug_07_0847,None,Arrows_VVA_Direction,1001,Whi,
right_schema_1_WHI.jpg,right,1,_WHI,schema,0,0,0,0,0,8,8,1,,,,,,,,,,,,,,,,,,,,,f,0.39245547005,,,,,,,,,2018_Aug_07_0847,None,Arrows_VVA_Direction,1001,Whi,
right_image_3_WHI.jpg,right,3,_WHI,image,0,0,0,0,,,,,0,0,0,4,,,,,,,,,,,,,,,,,,,d,1.63372681127,f,0.755289660767,,,,,2018_Aug_07_0847,None,Arrows_VVA_Direction,1001,Whi,
ahead_image_1_WHI.jpg,ahead,1,_WHI,image,0,0,0,0,,,,,0,1,1,0,,,,,,,,,,,,,,,,,,,,,f,1.80039813044,,,,,2018_Aug_07_0847,None,Arrows_VVA_Direction,1001,Whi,
right_image_1_WHI.jpg,right,1,_WHI,image,0,0,0,0,,,,,0,2,2,5,,,,,,,,,,,,,,,,,,,,,f,0.391377421794,,,,,2018_Aug_07_0847,None,Arrows_VVA_Direction,1001,Whi,
ahead_image_2_WHI.jpg,ahead,2,_WHI,image,0,0,0,0,,,,,0,3,3,1,,,,,,,,,,,,,,,,,,,,,f,0.869507743511,,,,,2018_Aug_07_0847,None,Arrows_VVA_Direction,1001,Whi,
right_image_2_WHI.jpg,right,2,_WHI,image,0,0,0,0,,,,,0,4,4,7,,,,,,,,,,,,,,,,,,,,,f,0.428691596258,,,,,2018_Aug_07_0847,None,Arrows_VVA_Direction,1001,Whi,
left_image_1_WHI.jpg,left,1,_WHI,image,0,0,0,0,,,,,0,5,5,3,,,,,,,,,,,,,,,,,,,,,f,0.362893717363,,,,,2018_Aug_07_0847,None,Arrows_VVA_Direction,1001,Whi,
left_image_3_WHI.jpg,left,3,_WHI,image,0,0,0,0,,,,,0,6,6,2,,,,,,,,,,,,,,,,,,,,,f,0.305897160899,,,,,2018_Aug_07_0847,None,Arrows_VVA_Direction,1001,Whi,
left_image_2_WHI.jpg,left,2,_WHI,image,0,0,0,0,,,,,0,7,7,8,,,,,,,,,,,,,,,,,,,,,f,0.277252118569,,,,,2018_Aug_07_0847,None,Arrows_VVA_Direction,1001,Whi,
ahead_image_3_WHI.jpg,ahead,3,_WHI,image,0,0,0,0,,,,,0,8,8,6,,,,,,,,,,,,,,,,,,,,,f,0.30876593478,,,,,2018_Aug_07_0847,None,Arrows_VVA_Direction,1001,Whi,
right_word_2_WHI.jpg,right,2,_WHI,word,0,0,0,0,,,,,,,,,0,0,0,3,,,,,,,,,,,,,,,d,0.724909314187,,,f,0.309614086756,,,2018_Aug_07_0847,None,Arrows_VVA_Direction,1001,Whi,
left_word_3_WHI.jpg,left,3,_WHI,word,0,0,0,0,,,,,,,,,0,1,1,2,,,,,,,,,,,,,,,,,,,f,0.313126979861,,,2018_Aug_07_0847,None,Arrows_VVA_Direction,1001,Whi,
left_word_1_WHI.jpg,left,1,_WHI,word,0,0,0,0,,,,,,,,,0,2,2,0,,,,,,,,,,,,,,,,,,,f,0.283268825617,,,2018_Aug_07_0847,None,Arrows_VVA_Direction,1001,Whi,
ahead_word_2_WHI.jpg,ahead,2,_WHI,word,0,0,0,0,,,,,,,,,0,3,3,7,,,,,,,,,,,,,,,,,,,f,0.25842445693,,,2018_Aug_07_0847,None,Arrows_VVA_Direction,1001,Whi,
left_word_2_WHI.jpg,left,2,_WHI,word,0,0,0,0,,,,,,,,,0,4,4,5,,,,,,,,,,,,,,,,,,,f,0.256028201664,,,2018_Aug_07_0847,None,Arrows_VVA_Direction,1001,Whi,
ahead_word_1_WHI.jpg,ahead,1,_WHI,word,0,0,0,0,,,,,,,,,0,5,5,8,,,,,,,,,,,,,,,,,,,f,0.184796156129,,,2018_Aug_07_0847,None,Arrows_VVA_Direction,1001,Whi,
ahead_word_3_WHI.jpg,ahead,3,_WHI,word,0,0,0,0,,,,,,,,,0,6,6,4,,,,,,,,,,,,,,,,,,,f,0.185912793968,,,2018_Aug_07_0847,None,Arrows_VVA_Direction,1001,Whi,
right_word_1_WHI.jpg,right,1,_WHI,word,0,0,0,0,,,,,,,,,0,7,7,6,,,,,,,,,,,,,,,,,,,f,0.151630373206,,,2018_Aug_07_0847,None,Arrows_VVA_Direction,1001,Whi,
right_word_3_WHI.jpg,right,3,_WHI,word,0,0,0,0,,,,,,,,,0,8,8,1,,,,,,,,,,,,,,,,,,,f,0.150259207701,,,2018_Aug_07_0847,None,Arrows_VVA_Direction,1001,Whi,
ahead_schema_1_WHI.jpg,ahead,1,_WHI,schema,1,0,1,0,0,0,0,4,,,,,,,,,,,,,,,,,,,d,0.575197341153,f,0.443881974788,,,,,,,,,2018_Aug_07_0847,None,Arrows_VVA_Direction,1001,Whi,
left_schema_3_WHI.jpg,left,3,_WHI,schema,1,0,1,0,0,1,1,5,,,,,,,,,,,,,,,,,,,,,f,0.291942063021,,,,,,,,,2018_Aug_07_0847,None,Arrows_VVA_Direction,1001,Whi,
left_schema_1_WHI.jpg,left,1,_WHI,schema,1,0,1,0,0,2,2,6,,,,,,,,,,,,,,,,,,,,,f,0.19455729425,,,,,,,,,2018_Aug_07_0847,None,Arrows_VVA_Direction,1001,Whi,
ahead_schema_3_WHI.jpg,ahead,3,_WHI,schema,1,0,1,0,0,3,3,3,,,,,,,,,,,,,,,,,,,,,f,0.152137786383,,,,,,,,,2018_Aug_07_0847,None,Arrows_VVA_Direction,1001,Whi,
ahead_schema_2_WHI.jpg,ahead,2,_WHI,schema,1,0,1,0,0,4,4,0,,,,,,,,,,,,,,,,,,,,,f,0.180624775123,,,,,,,,,2018_Aug_07_0847,None,Arrows_VVA_Direction,1001,Whi,
right_schema_3_WHI.jpg,right,3,_WHI,schema,1,0,1,0,0,5,5,2,,,,,,,,,,,,,,,,,,,,,f,0.170535624959,,,,,,,,,2018_Aug_07_0847,None,Arrows_VVA_Direction,1001,Whi,
left_schema_2_WHI.jpg,left,2,_WHI,schema,1,0,1,0,0,6,6,8,,,,,,,,,,,,,,,,,,,,,f,0.153949859785,,,,,,,,,2018_Aug_07_0847,None,Arrows_VVA_Direction,1001,Whi,
right_schema_2_WHI.jpg,right,2,_WHI,schema,1,0,1,0,0,7,7,7,,,,,,,,,,,,,,,,,,,,,f,0.131247629179,,,,,,,,,2018_Aug_07_0847,None,Arrows_VVA_Direction,1001,Whi,
right_schema_1_WHI.jpg,right,1,_WHI,schema,1,0,1,0,0,8,8,1,,,,,,,,,,,,,,,,,,,,,f,0.299478546716,,,,,,,,,2018_Aug_07_0847,None,Arrows_VVA_Direction,1001,Whi,
right_image_2_WHI.jpg,right,2,_WHI,image,1,0,1,0,,,,,0,0,0,7,,,,,,,,,,,,,,,,,,,d,0.51002880279,f,0.327128878096,,,,,2018_Aug_07_0847,None,Arrows_VVA_Direction,1001,Whi,
ahead_image_2_WHI.jpg,ahead,2,_WHI,image,1,0,1,0,,,,,0,1,1,1,,,,,,,,,,,,,,,,,,,,,f,0.06807713327,,,,,2018_Aug_07_0847,None,Arrows_VVA_Direction,1001,Whi,
left_image_3_WHI.jpg,left,3,_WHI,image,1,0,1,0,,,,,0,2,2,2,,,,,,,,,,,,,,,,,,,,,f,0.156632253435,,,,,2018_Aug_07_0847,None,Arrows_VVA_Direction,1001,Whi,
left_image_2_WHI.jpg,left,2,_WHI,image,1,0,1,0,,,,,0,3,3,8,,,,,,,,,,,,,,,,,,,,,f,0.150520714466,,,,,2018_Aug_07_0847,None,Arrows_VVA_Direction,1001,Whi,
right_image_1_WHI.jpg,right,1,_WHI,image,1,0,1,0,,,,,0,4,4,5,,,,,,,,,,,,,,,,,,,,,f,0.135857044021,,,,,2018_Aug_07_0847,None,Arrows_VVA_Direction,1001,Whi,
ahead_image_1_WHI.jpg,ahead,1,_WHI,image,1,0,1,0,,,,,0,5,5,0,,,,,,,,,,,,,,,,,,,,,f,0.115339236101,,,,,2018_Aug_07_0847,None,Arrows_VVA_Direction,1001,Whi,
ahead_image_3_WHI.jpg,ahead,3,_WHI,image,1,0,1,0,,,,,0,6,6,6,,,,,,,,,,,,,,,,,,,,,f,0.13104072283,,,,,2018_Aug_07_0847,None,Arrows_VVA_Direction,1001,Whi,
right_image_3_WHI.jpg,right,3,_WHI,image,1,0,1,0,,,,,0,7,7,4,,,,,,,,,,,,,,,,,,,,,f,0.156686443137,,,,,2018_Aug_07_0847,None,Arrows_VVA_Direction,1001,Whi,
left_image_1_WHI.jpg,left,1,_WHI,image,1,0,1,0,,,,,0,8,8,3,,,,,,,,,,,,,,,,,,,,,f,0.129670378286,,,,,2018_Aug_07_0847,None,Arrows_VVA_Direction,1001,Whi,
right_word_2_WHI.jpg,right,2,_WHI,word,1,0,1,0,,,,,,,,,0,0,0,3,,,,,,,,,,,,,,,d,0.6903805763,,,f,0.455727366498,,,2018_Aug_07_0847,None,Arrows_VVA_Direction,1001,Whi,
left_word_2_WHI.jpg,left,2,_WHI,word,1,0,1,0,,,,,,,,,0,1,1,5,,,,,,,,,,,,,,,,,,,f,0.35856387252,,,2018_Aug_07_0847,None,Arrows_VVA_Direction,1001,Whi,
right_word_3_WHI.jpg,right,3,_WHI,word,1,0,1,0,,,,,,,,,0,2,2,1,,,,,,,,,,,,,,,,,,,f,0.232221649261,,,2018_Aug_07_0847,None,Arrows_VVA_Direction,1001,Whi,
left_word_3_WHI.jpg,left,3,_WHI,word,1,0,1,0,,,,,,,,,0,3,3,2,,,,,,,,,,,,,,,,,,,f,0.319780006073,,,2018_Aug_07_0847,None,Arrows_VVA_Direction,1001,Whi,
ahead_word_2_WHI.jpg,ahead,2,_WHI,word,1,0,1,0,,,,,,,,,0,4,4,7,,,,,,,,,,,,,,,,,,,f,0.486212397693,,,2018_Aug_07_0847,None,Arrows_VVA_Direction,1001,Whi,
ahead_word_3_WHI.jpg,ahead,3,_WHI,word,1,0,1,0,,,,,,,,,0,5,5,4,,,,,,,,,,,,,,,,,,,f,0.357674257131,,,2018_Aug_07_0847,None,Arrows_VVA_Direction,1001,Whi,
right_word_1_WHI.jpg,right,1,_WHI,word,1,0,1,0,,,,,,,,,0,6,6,6,,,,,,,,,,,,,,,,,,,f,0.332733824849,,,2018_Aug_07_0847,None,Arrows_VVA_Direction,1001,Whi,
left_word_1_WHI.jpg,left,1,_WHI,word,1,0,1,0,,,,,,,,,0,7,7,0,,,,,,,,,,,,,,,,,,,f,0.4146929821,,,2018_Aug_07_0847,None,Arrows_VVA_Direction,1001,Whi,
ahead_word_1_WHI.jpg,ahead,1,_WHI,word,1,0,1,0,,,,,,,,,0,8,8,8,,,,,,,,,,,,,,,,,,,f,0.532068850473,,,2018_Aug_07_0847,None,Arrows_VVA_Direction,1001,Whi,
,,,,,,,,,,,,,,,,,,,,,,,,,,,,,,,,,,,,,,,,,d,0.704972814769,2018_Aug_07_0847,None,Arrows_VVA_Direction,1001,Whi,
