Stimulus_Practice,Direction,Number,Background,Format,Stimulus,direction,number,format,repeat_spatial_practice.thisRepN,repeat_spatial_practice.thisTrialN,repeat_spatial_practice.thisN,repeat_spatial_practice.thisIndex,trials.thisRepN,trials.thisTrialN,trials.thisN,trials.thisIndex,trials_3.thisRepN,trials_3.thisTrialN,trials_3.thisN,trials_3.thisIndex,trials_4.thisRepN,trials_4.thisTrialN,trials_4.thisN,trials_4.thisIndex,trials_2.thisRepN,trials_2.thisTrialN,trials_2.thisN,trials_2.thisIndex,key_resp_7.keys,key_resp_7.rt,key_resp_6.keys,key_resp_6.rt,key_resp_11.keys,key_resp_11.rt,key_resp_2.keys,key_resp_2.rt,key_resp_12.keys,key_resp_12.rt,key_resp_14.keys,key_resp_14.rt,key_resp_13.keys,key_resp_13.rt,direction_response.keys,direction_response.rt,spatialdirection_correct,date,frameRate,expName,participant,Scr or Whi,
,,,,,,,,,,,,,,,,,,,,,,,,,,,,,d,1.39400275215,,,,,,,,,,,,,,,,2018_Aug_07_1034,32.2861142025,Arrows_VVA_Direction,1001,Whi,
ahead_image_3_WHI.jpg,ahead,3,_WHI,image,,,,,0,0,0,0,0,0,0,6,,,,,,,,,,,,,,,s,0.185742013855,f,0.620284053031,,,,,,,,,,,,2018_Aug_07_1034,32.2861142025,Arrows_VVA_Direction,1001,Whi,
ahead_image_2_WHI.jpg,ahead,2,_WHI,image,,,,,0,0,0,0,0,1,1,1,,,,,,,,,,,,,,,,,a,0.76577045559,,,,,,,,,,,,2018_Aug_07_1034,32.2861142025,Arrows_VVA_Direction,1001,Whi,
left_image_1_WHI.jpg,left,1,_WHI,image,,,,,0,0,0,0,0,2,2,3,,,,,,,,,,,,,,,,,f,0.000935594551265,,,,,,,,,,,,2018_Aug_07_1034,32.2861142025,Arrows_VVA_Direction,1001,Whi,
right_image_2_WHI.jpg,right,2,_WHI,image,,,,,0,0,0,0,0,3,3,7,,,,,,,,,,,,,,,,,a,0.0466623206157,,,,,,,,,,,,2018_Aug_07_1034,32.2861142025,Arrows_VVA_Direction,1001,Whi,
ahead_image_1_WHI.jpg,ahead,1,_WHI,image,,,,,0,0,0,0,0,4,4,0,,,,,,,,,,,,,,,,,f,0.101323379902,,,,,,,,,,,,2018_Aug_07_1034,32.2861142025,Arrows_VVA_Direction,1001,Whi,
right_image_3_WHI.jpg,right,3,_WHI,image,,,,,0,0,0,0,0,5,5,4,,,,,,,,,,,,,,,,,a,0.0314345837105,,,,,,,,,,,,2018_Aug_07_1034,32.2861142025,Arrows_VVA_Direction,1001,Whi,
left_image_3_WHI.jpg,left,3,_WHI,image,,,,,0,0,0,0,0,6,6,2,,,,,,,,,,,,,,,,,f,0.0943205833901,,,,,,,,,,,,2018_Aug_07_1034,32.2861142025,Arrows_VVA_Direction,1001,Whi,
left_image_2_WHI.jpg,left,2,_WHI,image,,,,,0,0,0,0,0,7,7,8,,,,,,,,,,,,,,,,,a,0.000690508866683,,,,,,,,,,,,2018_Aug_07_1034,32.2861142025,Arrows_VVA_Direction,1001,Whi,
right_image_1_WHI.jpg,right,1,_WHI,image,,,,,0,0,0,0,0,8,8,5,,,,,,,,,,,,,,,,,None,,,,,,,,,,,,,2018_Aug_07_1034,32.2861142025,Arrows_VVA_Direction,1001,Whi,
right_word_2_WHI.jpg,right,2,_WHI,word,,,,,0,0,0,0,,,,,0,0,0,3,,,,,,,,,,,,,,,s,1.05809964682,f,0.608784326352,,,,,,,,2018_Aug_07_1034,32.2861142025,Arrows_VVA_Direction,1001,Whi,
left_word_3_WHI.jpg,left,3,_WHI,word,,,,,0,0,0,0,,,,,0,1,1,2,,,,,,,,,,,,,,,,,a,0.0634919397999,,,,,,,,2018_Aug_07_1034,32.2861142025,Arrows_VVA_Direction,1001,Whi,
ahead_word_3_WHI.jpg,ahead,3,_WHI,word,,,,,0,0,0,0,,,,,0,2,2,4,,,,,,,,,,,,,,,,,f,0.0543872367125,,,,,,,,2018_Aug_07_1034,32.2861142025,Arrows_VVA_Direction,1001,Whi,
ahead_word_1_WHI.jpg,ahead,1,_WHI,word,,,,,0,0,0,0,,,,,0,3,3,8,,,,,,,,,,,,,,,,,a,0.0274779093452,,,,,,,,2018_Aug_07_1034,32.2861142025,Arrows_VVA_Direction,1001,Whi,
right_word_1_WHI.jpg,right,1,_WHI,word,,,,,0,0,0,0,,,,,0,4,4,6,,,,,,,,,,,,,,,,,f,0.0326460537035,,,,,,,,2018_Aug_07_1034,32.2861142025,Arrows_VVA_Direction,1001,Whi,
right_word_3_WHI.jpg,right,3,_WHI,word,,,,,0,0,0,0,,,,,0,5,5,1,,,,,,,,,,,,,,,,,a,0.021122927079,,,,,,,,2018_Aug_07_1034,32.2861142025,Arrows_VVA_Direction,1001,Whi,
left_word_1_WHI.jpg,left,1,_WHI,word,,,,,0,0,0,0,,,,,0,6,6,0,,,,,,,,,,,,,,,,,f,0.0526080059353,,,,,,,,2018_Aug_07_1034,32.2861142025,Arrows_VVA_Direction,1001,Whi,
ahead_word_2_WHI.jpg,ahead,2,_WHI,word,,,,,0,0,0,0,,,,,0,7,7,7,,,,,,,,,,,,,,,,,a,0.0304554733448,,,,,,,,2018_Aug_07_1034,32.2861142025,Arrows_VVA_Direction,1001,Whi,
left_word_2_WHI.jpg,left,2,_WHI,word,,,,,0,0,0,0,,,,,0,8,8,5,,,,,,,,,,,,,,,,,None,,,,,,,,,2018_Aug_07_1034,32.2861142025,Arrows_VVA_Direction,1001,Whi,
right_schema_2_WHI.jpg,right,2,_WHI,schema,,,,,0,0,0,0,,,,,,,,,0,0,0,7,,,,,,,,,,,s,0.435028926004,,,f,0.336862100288,,,,,,2018_Aug_07_1034,32.2861142025,Arrows_VVA_Direction,1001,Whi,
ahead_schema_2_WHI.jpg,ahead,2,_WHI,schema,,,,,0,0,0,0,,,,,,,,,0,1,1,0,,,,,,,,,,,,,,,a,0.0408931623679,,,,,,2018_Aug_07_1034,32.2861142025,Arrows_VVA_Direction,1001,Whi,
right_schema_1_WHI.jpg,right,1,_WHI,schema,,,,,0,0,0,0,,,,,,,,,0,2,2,1,,,,,,,,,,,,,,,f,0.0869216269348,,,,,,2018_Aug_07_1034,32.2861142025,Arrows_VVA_Direction,1001,Whi,
left_schema_3_WHI.jpg,left,3,_WHI,schema,,,,,0,0,0,0,,,,,,,,,0,3,3,5,,,,,,,,,,,,,,,a,0.0216270561796,,,,,,2018_Aug_07_1034,32.2861142025,Arrows_VVA_Direction,1001,Whi,
left_schema_2_WHI.jpg,left,2,_WHI,schema,,,,,0,0,0,0,,,,,,,,,0,4,4,8,,,,,,,,,,,,,,,f,0.0615008759778,,,,,,2018_Aug_07_1034,32.2861142025,Arrows_VVA_Direction,1001,Whi,
right_schema_3_WHI.jpg,right,3,_WHI,schema,,,,,0,0,0,0,,,,,,,,,0,5,5,2,,,,,,,,,,,,,,,a,0.00118724885397,,,,,,2018_Aug_07_1034,32.2861142025,Arrows_VVA_Direction,1001,Whi,
ahead_schema_1_WHI.jpg,ahead,1,_WHI,schema,,,,,0,0,0,0,,,,,,,,,0,6,6,4,,,,,,,,,,,,,,,a,0.0578106348403,,,,,,2018_Aug_07_1034,32.2861142025,Arrows_VVA_Direction,1001,Whi,
left_schema_1_WHI.jpg,left,1,_WHI,schema,,,,,0,0,0,0,,,,,,,,,0,7,7,6,,,,,,,,,,,,,,,f,0.00137732340954,,,,,,2018_Aug_07_1034,32.2861142025,Arrows_VVA_Direction,1001,Whi,
ahead_schema_3_WHI.jpg,ahead,3,_WHI,schema,,,,,0,0,0,0,,,,,,,,,0,8,8,3,,,,,,,,,,,,,,,None,,,,,,,2018_Aug_07_1034,32.2861142025,Arrows_VVA_Direction,1001,Whi,
left_schema_3_WHI.jpg,left,3,_WHI,schema,,,,,1,0,1,0,0,0,0,5,,,,,,,,,,,,,,,s,0.462393118767,f,0.602906788699,,,,,,,,,,,,2018_Aug_07_1034,32.2861142025,Arrows_VVA_Direction,1001,Whi,
ahead_schema_1_WHI.jpg,ahead,1,_WHI,schema,,,,,1,0,1,0,0,1,1,4,,,,,,,,,,,,,,,,,a,0.0318184283096,,,,,,,,,,,,2018_Aug_07_1034,32.2861142025,Arrows_VVA_Direction,1001,Whi,
ahead_schema_3_WHI.jpg,ahead,3,_WHI,schema,,,,,1,0,1,0,0,2,2,3,,,,,,,,,,,,,,,,,f,0.001034532208,,,,,,,,,,,,2018_Aug_07_1034,32.2861142025,Arrows_VVA_Direction,1001,Whi,
left_schema_1_WHI.jpg,left,1,_WHI,schema,,,,,1,0,1,0,0,3,3,6,,,,,,,,,,,,,,,,,a,0.000759477727115,,,,,,,,,,,,2018_Aug_07_1034,32.2861142025,Arrows_VVA_Direction,1001,Whi,
right_schema_2_WHI.jpg,right,2,_WHI,schema,,,,,1,0,1,0,0,4,4,7,,,,,,,,,,,,,,,,,f,0.0844239711296,,,,,,,,,,,,2018_Aug_07_1034,32.2861142025,Arrows_VVA_Direction,1001,Whi,
right_schema_1_WHI.jpg,right,1,_WHI,schema,,,,,1,0,1,0,0,5,5,1,,,,,,,,,,,,,,,,,a,0.0307773277164,,,,,,,,,,,,2018_Aug_07_1034,32.2861142025,Arrows_VVA_Direction,1001,Whi,
left_schema_2_WHI.jpg,left,2,_WHI,schema,,,,,1,0,1,0,0,6,6,8,,,,,,,,,,,,,,,,,f,0.0580401201732,,,,,,,,,,,,2018_Aug_07_1034,32.2861142025,Arrows_VVA_Direction,1001,Whi,
right_schema_3_WHI.jpg,right,3,_WHI,schema,,,,,1,0,1,0,0,7,7,2,,,,,,,,,,,,,,,,,a,0.00122460676357,,,,,,,,,,,,2018_Aug_07_1034,32.2861142025,Arrows_VVA_Direction,1001,Whi,
ahead_schema_2_WHI.jpg,ahead,2,_WHI,schema,,,,,1,0,1,0,0,8,8,0,,,,,,,,,,,,,,,,,None,,,,,,,,,,,,,2018_Aug_07_1034,32.2861142025,Arrows_VVA_Direction,1001,Whi,
ahead_image_1_WHI.jpg,ahead,1,_WHI,image,,,,,1,0,1,0,,,,,0,0,0,0,,,,,,,,,,,,,,,s,0.481043021893,f,0.343492547283,,,,,,,,2018_Aug_07_1034,32.2861142025,Arrows_VVA_Direction,1001,Whi,
left_image_2_WHI.jpg,left,2,_WHI,image,,,,,1,0,1,0,,,,,0,1,1,8,,,,,,,,,,,,,,,,,a,0.0310909715481,,,,,,,,2018_Aug_07_1034,32.2861142025,Arrows_VVA_Direction,1001,Whi,
ahead_image_3_WHI.jpg,ahead,3,_WHI,image,,,,,1,0,1,0,,,,,0,2,2,6,,,,,,,,,,,,,,,,,f,0.0555560118519,,,,,,,,2018_Aug_07_1034,32.2861142025,Arrows_VVA_Direction,1001,Whi,
left_image_3_WHI.jpg,left,3,_WHI,image,,,,,1,0,1,0,,,,,0,3,3,2,,,,,,,,,,,,,,,,,a,0.040625908412,,,,,,,,2018_Aug_07_1034,32.2861142025,Arrows_VVA_Direction,1001,Whi,
left_image_1_WHI.jpg,left,1,_WHI,image,,,,,1,0,1,0,,,,,0,4,4,3,,,,,,,,,,,,,,,,,f,0.0320433978923,,,,,,,,2018_Aug_07_1034,32.2861142025,Arrows_VVA_Direction,1001,Whi,
right_image_2_WHI.jpg,right,2,_WHI,image,,,,,1,0,1,0,,,,,0,5,5,7,,,,,,,,,,,,,,,,,a,0.0308306962252,,,,,,,,2018_Aug_07_1034,32.2861142025,Arrows_VVA_Direction,1001,Whi,
right_image_3_WHI.jpg,right,3,_WHI,image,,,,,1,0,1,0,,,,,0,6,6,4,,,,,,,,,,,,,,,,,f,0.0407938144635,,,,,,,,2018_Aug_07_1034,32.2861142025,Arrows_VVA_Direction,1001,Whi,
right_image_1_WHI.jpg,right,1,_WHI,image,,,,,1,0,1,0,,,,,0,7,7,5,,,,,,,,,,,,,,,,,a,0.00114455376752,,,,,,,,2018_Aug_07_1034,32.2861142025,Arrows_VVA_Direction,1001,Whi,
ahead_image_2_WHI.jpg,ahead,2,_WHI,image,,,,,1,0,1,0,,,,,0,8,8,1,,,,,,,,,,,,,,,,,None,,,,,,,,,2018_Aug_07_1034,32.2861142025,Arrows_VVA_Direction,1001,Whi,
left_word_1_WHI.jpg,left,1,_WHI,word,,,,,1,0,1,0,,,,,,,,,0,0,0,0,,,,,,,,,,,s,0.73850355763,,,f,0.446061471011,,,,,,2018_Aug_07_1034,32.2861142025,Arrows_VVA_Direction,1001,Whi,
right_word_3_WHI.jpg,right,3,_WHI,word,,,,,1,0,1,0,,,,,,,,,0,1,1,1,,,,,,,,,,,,,,,a,0.0205416185781,,,,,,2018_Aug_07_1034,32.2861142025,Arrows_VVA_Direction,1001,Whi,
ahead_word_3_WHI.jpg,ahead,3,_WHI,word,,,,,1,0,1,0,,,,,,,,,0,2,2,4,,,,,,,,,,,,,,,f,0.0440649061929,,,,,,2018_Aug_07_1034,32.2861142025,Arrows_VVA_Direction,1001,Whi,
right_word_1_WHI.jpg,right,1,_WHI,word,,,,,1,0,1,0,,,,,,,,,0,3,3,6,,,,,,,,,,,,,,,f,0.0638355521951,,,,,,2018_Aug_07_1034,32.2861142025,Arrows_VVA_Direction,1001,Whi,
right_word_2_WHI.jpg,right,2,_WHI,word,,,,,1,0,1,0,,,,,,,,,0,4,4,3,,,,,,,,,,,,,,,a,0.0329473817255,,,,,,2018_Aug_07_1034,32.2861142025,Arrows_VVA_Direction,1001,Whi,
left_word_2_WHI.jpg,left,2,_WHI,word,,,,,1,0,1,0,,,,,,,,,0,5,5,5,,,,,,,,,,,,,,,f,0.0214131707326,,,,,,2018_Aug_07_1034,32.2861142025,Arrows_VVA_Direction,1001,Whi,
ahead_word_1_WHI.jpg,ahead,1,_WHI,word,,,,,1,0,1,0,,,,,,,,,0,6,6,8,,,,,,,,,,,,,,,a,0.053260746412,,,,,,2018_Aug_07_1034,32.2861142025,Arrows_VVA_Direction,1001,Whi,
ahead_word_2_WHI.jpg,ahead,2,_WHI,word,,,,,1,0,1,0,,,,,,,,,0,7,7,7,,,,,,,,,,,,,,,f,0.0318254071753,,,,,,2018_Aug_07_1034,32.2861142025,Arrows_VVA_Direction,1001,Whi,
left_word_3_WHI.jpg,left,3,_WHI,word,,,,,1,0,1,0,,,,,,,,,0,8,8,2,,,,,,,,,,,,,,,None,,,,,,,2018_Aug_07_1034,32.2861142025,Arrows_VVA_Direction,1001,Whi,
,,,,,,,,,,,,,,,,,,,,,,,,,,,,,,,,,,,,,,,,,s,0.468697195873,,,,2018_Aug_07_1034,32.2861142025,Arrows_VVA_Direction,1001,Whi,
,,,,,left_schema_5_WHI.jpg,left,5,schema,,,,,,,,,,,,,,,,,0,0,0,0,,,,,,,,,,,,,,,a,0.372739013983,,2018_Aug_07_1034,32.2861142025,Arrows_VVA_Direction,1001,Whi,
,,,,,ahead_schema_6_WHI.jpg,ahead,6,schema,,,,,,,,,,,,,,,,,0,1,1,1,,,,,,,,,,,,,,,f,0.307404211257,1,2018_Aug_07_1034,32.2861142025,Arrows_VVA_Direction,1001,Whi,
,,,,,left_schema_4_WHI.jpg,left,4,schema,,,,,,,,,,,,,,,,,0,2,2,2,,,,,,,,,,,,,,,a,0.299809843069,,2018_Aug_07_1034,32.2861142025,Arrows_VVA_Direction,1001,Whi,
,,,,,left_schema_15_WHI.jpg,left,15,schema,,,,,,,,,,,,,,,,,0,3,3,3,,,,,,,,,,,,,,,f,0.156610905891,0,2018_Aug_07_1034,32.2861142025,Arrows_VVA_Direction,1001,Whi,
,,,,,ahead_schema_7_WHI.jpg,ahead,7,schema,,,,,,,,,,,,,,,,,0,4,4,4,,,,,,,,,,,,,,,a,0.062810462201,,2018_Aug_07_1034,32.2861142025,Arrows_VVA_Direction,1001,Whi,
,,,,,left_schema_14_WHI.jpg,left,14,schema,,,,,,,,,,,,,,,,,0,5,5,5,,,,,,,,,,,,,,,f,0.122558381176,1,2018_Aug_07_1034,32.2861142025,Arrows_VVA_Direction,1001,Whi,
,,,,,left_schema_6_WHI.jpg,left,6,schema,,,,,,,,,,,,,,,,,0,6,6,6,,,,,,,,,,,,,,,a,0.153897312004,,2018_Aug_07_1034,32.2861142025,Arrows_VVA_Direction,1001,Whi,
,,,,,ahead_schema_13_WHI.jpg,ahead,13,schema,,,,,,,,,,,,,,,,,0,7,7,7,,,,,,,,,,,,,,,f,0.0336259852629,1,2018_Aug_07_1034,32.2861142025,Arrows_VVA_Direction,1001,Whi,
,,,,,ahead_schema_10_WHI.jpg,ahead,10,schema,,,,,,,,,,,,,,,,,0,8,8,8,,,,,,,,,,,,,,,a,0.0224969661795,,2018_Aug_07_1034,32.2861142025,Arrows_VVA_Direction,1001,Whi,
,,,,,right_schema_7_WHI.jpg,right,7,schema,,,,,,,,,,,,,,,,,0,9,9,9,,,,,,,,,,,,,,,f,0.0654476978816,1,2018_Aug_07_1034,32.2861142025,Arrows_VVA_Direction,1001,Whi,
,,,,,right_schema_21_WHI.jpg,right,21,schema,,,,,,,,,,,,,,,,,0,10,10,10,,,,,,,,,,,,,,,a,0.00104151107371,,2018_Aug_07_1034,32.2861142025,Arrows_VVA_Direction,1001,Whi,
,,,,,right_schema_20_WHI.jpg,right,20,schema,,,,,,,,,,,,,,,,,0,11,11,11,,,,,,,,,,,,,,,f,0.0321751774754,0,2018_Aug_07_1034,32.2861142025,Arrows_VVA_Direction,1001,Whi,
,,,,,right_schema_14_WHI.jpg,right,14,schema,,,,,,,,,,,,,,,,,0,12,12,12,,,,,,,,,,,,,,,a,0.0318574283738,,2018_Aug_07_1034,32.2861142025,Arrows_VVA_Direction,1001,Whi,
,,,,,right_schema_16_WHI.jpg,right,16,schema,,,,,,,,,,,,,,,,,0,13,13,13,,,,,,,,,,,,,,,f,0.0211750641465,0,2018_Aug_07_1034,32.2861142025,Arrows_VVA_Direction,1001,Whi,
,,,,,ahead_schema_14_WHI.jpg,ahead,14,schema,,,,,,,,,,,,,,,,,0,14,14,14,,,,,,,,,,,,,,,a,0.0529167235363,,2018_Aug_07_1034,32.2861142025,Arrows_VVA_Direction,1001,Whi,
,,,,,right_schema_13_WHI.jpg,right,13,schema,,,,,,,,,,,,,,,,,0,15,15,15,,,,,,,,,,,,,,,f,0.0321809248999,1,2018_Aug_07_1034,32.2861142025,Arrows_VVA_Direction,1001,Whi,
,,,,,ahead_schema_17_WHI.jpg,ahead,17,schema,,,,,,,,,,,,,,,,,0,16,16,16,,,,,,,,,,,,,,,a,0.220357373357,,2018_Aug_07_1034,32.2861142025,Arrows_VVA_Direction,1001,Whi,
,,,,,left_schema_17_WHI.jpg,left,17,schema,,,,,,,,,,,,,,,,,0,17,17,17,,,,,,,,,,,,,,,f,0.0227859783918,1,2018_Aug_07_1034,32.2861142025,Arrows_VVA_Direction,1001,Whi,
,,,,,ahead_schema_1_WHI.jpg,ahead,1,schema,,,,,,,,,,,,,,,,,0,18,18,18,,,,,,,,,,,,,,,a,0.0874528507702,,2018_Aug_07_1034,32.2861142025,Arrows_VVA_Direction,1001,Whi,
,,,,,right_schema_10_WHI.jpg,right,10,schema,,,,,,,,,,,,,,,,,0,19,19,19,,,,,,,,,,,,,,,a,0.120479464531,0,2018_Aug_07_1034,32.2861142025,Arrows_VVA_Direction,1001,Whi,
,,,,,ahead_image_6_WHI.jpg,ahead,6,image,,,,,,,,,,,,,,,,,0,20,20,20,,,,,,,,,,,,,,,f,0.329630639171,,2018_Aug_07_1034,32.2861142025,Arrows_VVA_Direction,1001,Whi,
,,,,,left_image_2_WHI.jpg,left,2,image,,,,,,,,,,,,,,,,,0,21,21,21,,,,,,,,,,,,,,,a,0.104488144629,0,2018_Aug_07_1034,32.2861142025,Arrows_VVA_Direction,1001,Whi,
,,,,,right_image_10_WHI.jpg,right,10,image,,,,,,,,,,,,,,,,,0,22,22,22,,,,,,,,,,,,,,,f,0.0364237378817,,2018_Aug_07_1034,32.2861142025,Arrows_VVA_Direction,1001,Whi,
,,,,,left_image_12_WHI.jpg,left,12,image,,,,,,,,,,,,,,,,,0,23,23,23,,,,,,,,,,,,,,,a,0.00150828203186,0,2018_Aug_07_1034,32.2861142025,Arrows_VVA_Direction,1001,Whi,
,,,,,left_image_8_WHI.jpg,left,8,image,,,,,,,,,,,,,,,,,0,24,24,24,,,,,,,,,,,,,,,f,0.000997173832729,,2018_Aug_07_1034,32.2861142025,Arrows_VVA_Direction,1001,Whi,
,,,,,ahead_image_9_WHI.jpg,ahead,9,image,,,,,,,,,,,,,,,,,0,25,25,25,,,,,,,,,,,,,,,f,0.0609454310033,1,2018_Aug_07_1034,32.2861142025,Arrows_VVA_Direction,1001,Whi,
,,,,,ahead_image_19_WHI.jpg,ahead,19,image,,,,,,,,,,,,,,,,,0,26,26,26,,,,,,,,,,,,,,,a,0.0410200157203,,2018_Aug_07_1034,32.2861142025,Arrows_VVA_Direction,1001,Whi,
,,,,,ahead_image_21_WHI.jpg,ahead,21,image,,,,,,,,,,,,,,,,,0,27,27,27,,,,,,,,,,,,,,,f,0.00239132903516,0,2018_Aug_07_1034,32.2861142025,Arrows_VVA_Direction,1001,Whi,
,,,,,right_image_2_WHI.jpg,right,2,image,,,,,,,,,,,,,,,,,0,28,28,28,,,,,,,,,,,,,,,f,0.0688920326065,,2018_Aug_07_1034,32.2861142025,Arrows_VVA_Direction,1001,Whi,
,,,,,right_image_16_WHI.jpg,right,16,image,,,,,,,,,,,,,,,,,0,29,29,29,,,,,,,,,,,,,,,a,0.0239904690534,1,2018_Aug_07_1034,32.2861142025,Arrows_VVA_Direction,1001,Whi,
,,,,,left_image_13_WHI.jpg,left,13,image,,,,,,,,,,,,,,,,,0,30,30,30,,,,,,,,,,,,,,,f,0.00147133436985,,2018_Aug_07_1034,32.2861142025,Arrows_VVA_Direction,1001,Whi,
,,,,,left_image_15_WHI.jpg,left,15,image,,,,,,,,,,,,,,,,,0,31,31,31,,,,,,,,,,,,,,,f,0.129224133911,0,2018_Aug_07_1034,32.2861142025,Arrows_VVA_Direction,1001,Whi,
,,,,,left_image_14_WHI.jpg,left,14,image,,,,,,,,,,,,,,,,,0,32,32,32,,,,,,,,,,,,,,,a,0.0616334767547,,2018_Aug_07_1034,32.2861142025,Arrows_VVA_Direction,1001,Whi,
,,,,,ahead_image_1_WHI.jpg,ahead,1,image,,,,,,,,,,,,,,,,,0,33,33,33,,,,,,,,,,,,,,,f,0.000885920831934,1,2018_Aug_07_1034,32.2861142025,Arrows_VVA_Direction,1001,Whi,
,,,,,ahead_image_18_WHI.jpg,ahead,18,image,,,,,,,,,,,,,,,,,0,34,34,34,,,,,,,,,,,,,,,a,0.665790325031,,2018_Aug_07_1034,32.2861142025,Arrows_VVA_Direction,1001,Whi,
,,,,,ahead_image_10_WHI.jpg,ahead,10,image,,,,,,,,,,,,,,,,,0,35,35,35,,,,,,,,,,,,,,,f,0.0411953113507,0,2018_Aug_07_1034,32.2861142025,Arrows_VVA_Direction,1001,Whi,
,,,,,right_image_15_WHI.jpg,right,15,image,,,,,,,,,,,,,,,,,0,36,36,36,,,,,,,,,,,,,,,a,0.0488052796572,,2018_Aug_07_1034,32.2861142025,Arrows_VVA_Direction,1001,Whi,
,,,,,right_image_14_WHI.jpg,right,14,image,,,,,,,,,,,,,,,,,0,37,37,37,,,,,,,,,,,,,,,f,0.000938878860325,0,2018_Aug_07_1034,32.2861142025,Arrows_VVA_Direction,1001,Whi,
,,,,,right_image_7_WHI.jpg,right,7,image,,,,,,,,,,,,,,,,,0,38,38,38,,,,,,,,,,,,,,,f,0.000903573585674,,2018_Aug_07_1034,32.2861142025,Arrows_VVA_Direction,1001,Whi,
,,,,,right_image_17_WHI.jpg,right,17,image,,,,,,,,,,,,,,,,,0,39,39,39,,,,,,,,,,,,,,,a,0.0558988030534,1,2018_Aug_07_1034,32.2861142025,Arrows_VVA_Direction,1001,Whi,
,,,,,left_word_17_WHI.jpg,left,17,word,,,,,,,,,,,,,,,,,0,40,40,40,,,,,,,,,,,,,,,f,0.108668146888,,2018_Aug_07_1034,32.2861142025,Arrows_VVA_Direction,1001,Whi,
,,,,,right_word_16_WHI.jpg,right,16,word,,,,,,,,,,,,,,,,,0,41,41,41,,,,,,,,,,,,,,,f,0.125389386201,1,2018_Aug_07_1034,32.2861142025,Arrows_VVA_Direction,1001,Whi,
,,,,,ahead_word_2_WHI.jpg,ahead,2,word,,,,,,,,,,,,,,,,,0,42,42,42,,,,,,,,,,,,,,,a,0.00143110263161,,2018_Aug_07_1034,32.2861142025,Arrows_VVA_Direction,1001,Whi,
,,,,,ahead_word_8_WHI.jpg,ahead,8,word,,,,,,,,,,,,,,,,,0,43,43,43,,,,,,,,,,,,,,,f,0.000828857300803,0,2018_Aug_07_1034,32.2861142025,Arrows_VVA_Direction,1001,Whi,
,,,,,right_word_20_WHI.jpg,right,20,word,,,,,,,,,,,,,,,,,0,44,44,44,,,,,,,,,,,,,,,a,0.0679400169756,,2018_Aug_07_1034,32.2861142025,Arrows_VVA_Direction,1001,Whi,
,,,,,left_word_4_WHI.jpg,left,4,word,,,,,,,,,,,,,,,,,0,45,45,45,,,,,,,,,,,,,,,f,0.00081695173867,1,2018_Aug_07_1034,32.2861142025,Arrows_VVA_Direction,1001,Whi,
,,,,,left_word_19_WHI.jpg,left,19,word,,,,,,,,,,,,,,,,,0,46,46,46,,,,,,,,,,,,,,,a,0.0945985112339,,2018_Aug_07_1034,32.2861142025,Arrows_VVA_Direction,1001,Whi,
,,,,,ahead_word_3_WHI.jpg,ahead,3,word,,,,,,,,,,,,,,,,,0,47,47,47,,,,,,,,,,,,,,,f,0.041605429491,1,2018_Aug_07_1034,32.2861142025,Arrows_VVA_Direction,1001,Whi,
,,,,,ahead_word_16_WHI.jpg,ahead,16,word,,,,,,,,,,,,,,,,,0,48,48,48,,,,,,,,,,,,,,,a,0.13404825516,,2018_Aug_07_1034,32.2861142025,Arrows_VVA_Direction,1001,Whi,
,,,,,right_word_18_WHI.jpg,right,18,word,,,,,,,,,,,,,,,,,0,49,49,49,,,,,,,,,,,,,,,f,0.0359101665672,1,2018_Aug_07_1034,32.2861142025,Arrows_VVA_Direction,1001,Whi,
,,,,,left_word_21_WHI.jpg,left,21,word,,,,,,,,,,,,,,,,,0,50,50,50,,,,,,,,,,,,,,,a,0.060180205619,,2018_Aug_07_1034,32.2861142025,Arrows_VVA_Direction,1001,Whi,
,,,,,left_word_1_WHI.jpg,left,1,word,,,,,,,,,,,,,,,,,0,51,51,51,,,,,,,,,,,,,,,f,0.0420151369181,0,2018_Aug_07_1034,32.2861142025,Arrows_VVA_Direction,1001,Whi,
,,,,,ahead_word_6_WHI.jpg,ahead,6,word,,,,,,,,,,,,,,,,,0,52,52,52,,,,,,,,,,,,,,,a,0.0417421355378,,2018_Aug_07_1034,32.2861142025,Arrows_VVA_Direction,1001,Whi,
,,,,,left_word_15_WHI.jpg,left,15,word,,,,,,,,,,,,,,,,,0,53,53,53,,,,,,,,,,,,,,,f,0.0343780738767,1,2018_Aug_07_1034,32.2861142025,Arrows_VVA_Direction,1001,Whi,
,,,,,right_word_5_WHI.jpg,right,5,word,,,,,,,,,,,,,,,,,0,54,54,54,,,,,,,,,,,,,,,a,0.0316451850813,,2018_Aug_07_1034,32.2861142025,Arrows_VVA_Direction,1001,Whi,
,,,,,left_word_6_WHI.jpg,left,6,word,,,,,,,,,,,,,,,,,0,55,55,55,,,,,,,,,,,,,,,f,0.0319173655007,1,2018_Aug_07_1034,32.2861142025,Arrows_VVA_Direction,1001,Whi,
,,,,,right_word_12_WHI.jpg,right,12,word,,,,,,,,,,,,,,,,,0,56,56,56,,,,,,,,,,,,,,,a,0.063000126509,,2018_Aug_07_1034,32.2861142025,Arrows_VVA_Direction,1001,Whi,
,,,,,right_word_1_WHI.jpg,right,1,word,,,,,,,,,,,,,,,,,0,57,57,57,,,,,,,,,,,,,,,f,0.000615382334217,0,2018_Aug_07_1034,32.2861142025,Arrows_VVA_Direction,1001,Whi,
,,,,,ahead_word_13_WHI.jpg,ahead,13,word,,,,,,,,,,,,,,,,,0,58,58,58,,,,,,,,,,,,,,,a,0.131649536779,,2018_Aug_07_1034,32.2861142025,Arrows_VVA_Direction,1001,Whi,
,,,,,right_word_19_WHI.jpg,right,19,word,,,,,,,,,,,,,,,,,0,59,59,59,,,,,,,,,,,,,,,f,0.06306129531,1,2018_Aug_07_1034,32.2861142025,Arrows_VVA_Direction,1001,Whi,
,,,,,right_word_13_WHI.jpg,right,13,word,,,,,,,,,,,,,,,,,0,60,60,60,,,,,,,,,,,,,,,f,0.155307067093,,2018_Aug_07_1034,32.2861142025,Arrows_VVA_Direction,1001,Whi,
,,,,,ahead_word_12_WHI.jpg,ahead,12,word,,,,,,,,,,,,,,,,,0,61,61,61,,,,,,,,,,,,,,,a,0.0632127802819,0,2018_Aug_07_1034,32.2861142025,Arrows_VVA_Direction,1001,Whi,
,,,,,right_word_14_WHI.jpg,right,14,word,,,,,,,,,,,,,,,,,0,62,62,62,,,,,,,,,,,,,,,f,0.0631425797474,,2018_Aug_07_1034,32.2861142025,Arrows_VVA_Direction,1001,Whi,
,,,,,right_word_8_WHI.jpg,right,8,word,,,,,,,,,,,,,,,,,0,63,63,63,,,,,,,,,,,,,,,a,0.0319723763969,1,2018_Aug_07_1034,32.2861142025,Arrows_VVA_Direction,1001,Whi,
,,,,,right_word_2_WHI.jpg,right,2,word,,,,,,,,,,,,,,,,,0,64,64,64,,,,,,,,,,,,,,,f,0.0467082997784,,2018_Aug_07_1034,32.2861142025,Arrows_VVA_Direction,1001,Whi,
,,,,,left_word_10_WHI.jpg,left,10,word,,,,,,,,,,,,,,,,,0,65,65,65,,,,,,,,,,,,,,,a,0.0413981126621,0,2018_Aug_07_1034,32.2861142025,Arrows_VVA_Direction,1001,Whi,
,,,,,left_word_13_WHI.jpg,left,13,word,,,,,,,,,,,,,,,,,0,66,66,66,,,,,,,,,,,,,,,f,0.000716372393072,,2018_Aug_07_1034,32.2861142025,Arrows_VVA_Direction,1001,Whi,
,,,,,right_word_11_WHI.jpg,right,11,word,,,,,,,,,,,,,,,,,0,67,67,67,,,,,,,,,,,,,,,a,0.057445674669,0,2018_Aug_07_1034,32.2861142025,Arrows_VVA_Direction,1001,Whi,
,,,,,left_word_5_WHI.jpg,left,5,word,,,,,,,,,,,,,,,,,0,68,68,68,,,,,,,,,,,,,,,f,0.0207431879826,,2018_Aug_07_1034,32.2861142025,Arrows_VVA_Direction,1001,Whi,
,,,,,ahead_word_18_WHI.jpg,ahead,18,word,,,,,,,,,,,,,,,,,0,69,69,69,,,,,,,,,,,,,,,a,0.0628658835776,0,2018_Aug_07_1034,32.2861142025,Arrows_VVA_Direction,1001,Whi,
,,,,,ahead_word_20_WHI.jpg,ahead,20,word,,,,,,,,,,,,,,,,,0,70,70,70,,,,,,,,,,,,,,,f,0.000518497545272,,2018_Aug_07_1034,32.2861142025,Arrows_VVA_Direction,1001,Whi,
,,,,,ahead_word_14_WHI.jpg,ahead,14,word,,,,,,,,,,,,,,,,,0,71,71,71,,,,,,,,,,,,,,,f,0.12522189063,0,2018_Aug_07_1034,32.2861142025,Arrows_VVA_Direction,1001,Whi,
,,,,,left_word_9_WHI.jpg,left,9,word,,,,,,,,,,,,,,,,,0,72,72,72,,,,,,,,,,,,,,,a,0.0626581562683,,2018_Aug_07_1034,32.2861142025,Arrows_VVA_Direction,1001,Whi,
,,,,,left_word_16_WHI.jpg,left,16,word,,,,,,,,,,,,,,,,,0,73,73,73,,,,,,,,,,,,,,,f,0.0322966938838,0,2018_Aug_07_1034,32.2861142025,Arrows_VVA_Direction,1001,Whi,
,,,,,ahead_word_19_WHI.jpg,ahead,19,word,,,,,,,,,,,,,,,,,0,74,74,74,,,,,,,,,,,,,,,a,0.0950845771004,,2018_Aug_07_1034,32.2861142025,Arrows_VVA_Direction,1001,Whi,
,,,,,right_word_10_WHI.jpg,right,10,word,,,,,,,,,,,,,,,,,0,75,75,75,,,,,,,,,,,,,,,a,0.089778495254,0,2018_Aug_07_1034,32.2861142025,Arrows_VVA_Direction,1001,Whi,
,,,,,ahead_word_7_WHI.jpg,ahead,7,word,,,,,,,,,,,,,,,,,0,76,76,76,,,,,,,,,,,,,,,f,0.22409359389,,2018_Aug_07_1034,32.2861142025,Arrows_VVA_Direction,1001,Whi,
,,,,,ahead_word_21_WHI.jpg,ahead,21,word,,,,,,,,,,,,,,,,,0,77,77,77,,,,,,,,,,,,,,,f,0.0717369955964,0,2018_Aug_07_1034,32.2861142025,Arrows_VVA_Direction,1001,Whi,
,,,,,left_word_3_WHI.jpg,left,3,word,,,,,,,,,,,,,,,,,0,78,78,78,,,,,,,,,,,,,,,a,0.0323258414865,,2018_Aug_07_1034,32.2861142025,Arrows_VVA_Direction,1001,Whi,
,,,,,right_word_4_WHI.jpg,right,4,word,,,,,,,,,,,,,,,,,0,79,79,79,,,,,,,,,,,,,,,f,0.00108010065742,1,2018_Aug_07_1034,32.2861142025,Arrows_VVA_Direction,1001,Whi,
,,,,,left_image_3_WHI.jpg,left,3,image,,,,,,,,,,,,,,,,,0,80,80,80,,,,,,,,,,,,,,,f,0.157027181704,,2018_Aug_07_1034,32.2861142025,Arrows_VVA_Direction,1001,Whi,
,,,,,left_image_20_WHI.jpg,left,20,image,,,,,,,,,,,,,,,,,0,81,81,81,,,,,,,,,,,,,,,a,0.041517986916,1,2018_Aug_07_1034,32.2861142025,Arrows_VVA_Direction,1001,Whi,
,,,,,left_image_17_WHI.jpg,left,17,image,,,,,,,,,,,,,,,,,0,82,82,82,,,,,,,,,,,,,,,f,0.0444717400242,,2018_Aug_07_1034,32.2861142025,Arrows_VVA_Direction,1001,Whi,
,,,,,right_image_20_WHI.jpg,right,20,image,,,,,,,,,,,,,,,,,0,83,83,83,,,,,,,,,,,,,,,a,0.0321402826812,0,2018_Aug_07_1034,32.2861142025,Arrows_VVA_Direction,1001,Whi,
,,,,,ahead_image_15_WHI.jpg,ahead,15,image,,,,,,,,,,,,,,,,,0,84,84,84,,,,,,,,,,,,,,,f,0.0318582493346,,2018_Aug_07_1034,32.2861142025,Arrows_VVA_Direction,1001,Whi,
,,,,,ahead_image_13_WHI.jpg,ahead,13,image,,,,,,,,,,,,,,,,,0,85,85,85,,,,,,,,,,,,,,,a,0.0328841602895,1,2018_Aug_07_1034,32.2861142025,Arrows_VVA_Direction,1001,Whi,
,,,,,right_image_9_WHI.jpg,right,9,image,,,,,,,,,,,,,,,,,0,86,86,86,,,,,,,,,,,,,,,a,0.103143663611,,2018_Aug_07_1034,32.2861142025,Arrows_VVA_Direction,1001,Whi,
,,,,,ahead_image_11_WHI.jpg,ahead,11,image,,,,,,,,,,,,,,,,,0,87,87,87,,,,,,,,,,,,,,,f,0.0208831783384,1,2018_Aug_07_1034,32.2861142025,Arrows_VVA_Direction,1001,Whi,
,,,,,right_image_13_WHI.jpg,right,13,image,,,,,,,,,,,,,,,,,0,88,88,88,,,,,,,,,,,,,,,a,0.0635227293242,,2018_Aug_07_1034,32.2861142025,Arrows_VVA_Direction,1001,Whi,
,,,,,left_image_11_WHI.jpg,left,11,image,,,,,,,,,,,,,,,,,0,89,89,89,,,,,,,,,,,,,,,f,0.00135269179009,1,2018_Aug_07_1034,32.2861142025,Arrows_VVA_Direction,1001,Whi,
,,,,,right_image_19_WHI.jpg,right,19,image,,,,,,,,,,,,,,,,,0,90,90,90,,,,,,,,,,,,,,,a,0.0414202811662,,2018_Aug_07_1034,32.2861142025,Arrows_VVA_Direction,1001,Whi,
,,,,,left_image_16_WHI.jpg,left,16,image,,,,,,,,,,,,,,,,,0,91,91,91,,,,,,,,,,,,,,,f,0.0488327851053,1,2018_Aug_07_1034,32.2861142025,Arrows_VVA_Direction,1001,Whi,
,,,,,ahead_image_14_WHI.jpg,ahead,14,image,,,,,,,,,,,,,,,,,0,92,92,92,,,,,,,,,,,,,,,a,0.000995121197775,,2018_Aug_07_1034,32.2861142025,Arrows_VVA_Direction,1001,Whi,
,,,,,ahead_image_20_WHI.jpg,ahead,20,image,,,,,,,,,,,,,,,,,0,93,93,93,,,,,,,,,,,,,,,a,0.0411743745208,1,2018_Aug_07_1034,32.2861142025,Arrows_VVA_Direction,1001,Whi,
,,,,,ahead_image_3_WHI.jpg,ahead,3,image,,,,,,,,,,,,,,,,,0,94,94,94,,,,,,,,,,,,,,,f,0.05458059581,,2018_Aug_07_1034,32.2861142025,Arrows_VVA_Direction,1001,Whi,
,,,,,left_image_21_WHI.jpg,left,21,image,,,,,,,,,,,,,,,,,0,95,95,95,,,,,,,,,,,,,,,a,0.0325647692662,0,2018_Aug_07_1034,32.2861142025,Arrows_VVA_Direction,1001,Whi,
,,,,,right_image_11_WHI.jpg,right,11,image,,,,,,,,,,,,,,,,,0,96,96,96,,,,,,,,,,,,,,,f,0.0836891247891,,2018_Aug_07_1034,32.2861142025,Arrows_VVA_Direction,1001,Whi,
,,,,,ahead_image_8_WHI.jpg,ahead,8,image,,,,,,,,,,,,,,,,,0,97,97,97,,,,,,,,,,,,,,,a,0.000182274496183,0,2018_Aug_07_1034,32.2861142025,Arrows_VVA_Direction,1001,Whi,
,,,,,left_image_6_WHI.jpg,left,6,image,,,,,,,,,,,,,,,,,0,98,98,98,,,,,,,,,,,,,,,f,0.00140523933806,,2018_Aug_07_1034,32.2861142025,Arrows_VVA_Direction,1001,Whi,
,,,,,right_image_8_WHI.jpg,right,8,image,,,,,,,,,,,,,,,,,0,99,99,99,,,,,,,,,,,,,,,a,0.0532110724598,0,2018_Aug_07_1034,32.2861142025,Arrows_VVA_Direction,1001,Whi,
,,,,,ahead_schema_5_WHI.jpg,ahead,5,schema,,,,,,,,,,,,,,,,,0,100,100,100,,,,,,,,,,,,,,,f,0.355124053312,,2018_Aug_07_1034,32.2861142025,Arrows_VVA_Direction,1001,Whi,
,,,,,right_schema_1_WHI.jpg,right,1,schema,,,,,,,,,,,,,,,,,0,101,101,101,,,,,,,,,,,,,,,a,0.093111166032,0,2018_Aug_07_1034,32.2861142025,Arrows_VVA_Direction,1001,Whi,
,,,,,right_schema_2_WHI.jpg,right,2,schema,,,,,,,,,,,,,,,,,0,102,102,102,,,,,,,,,,,,,,,f,0.0316899325699,,2018_Aug_07_1034,32.2861142025,Arrows_VVA_Direction,1001,Whi,
,,,,,left_schema_2_WHI.jpg,left,2,schema,,,,,,,,,,,,,,,,,0,103,103,103,,,,,,,,,,,,,,,a,0.00182603113353,0,2018_Aug_07_1034,32.2861142025,Arrows_VVA_Direction,1001,Whi,
,,,,,right_schema_9_WHI.jpg,right,9,schema,,,,,,,,,,,,,,,,,0,104,104,104,,,,,,,,,,,,,,,f,0.000753320055082,,2018_Aug_07_1034,32.2861142025,Arrows_VVA_Direction,1001,Whi,
,,,,,left_schema_13_WHI.jpg,left,13,schema,,,,,,,,,,,,,,,,,0,105,105,105,,,,,,,,,,,,,,,a,0.0401320422534,0,2018_Aug_07_1034,32.2861142025,Arrows_VVA_Direction,1001,Whi,
,,,,,ahead_schema_20_WHI.jpg,ahead,20,schema,,,,,,,,,,,,,,,,,0,106,106,106,,,,,,,,,,,,,,,f,0.0641516591422,,2018_Aug_07_1034,32.2861142025,Arrows_VVA_Direction,1001,Whi,
,,,,,right_schema_17_WHI.jpg,right,17,schema,,,,,,,,,,,,,,,,,0,107,107,107,,,,,,,,,,,,,,,a,0.0755249429494,0,2018_Aug_07_1034,32.2861142025,Arrows_VVA_Direction,1001,Whi,
,,,,,ahead_schema_21_WHI.jpg,ahead,21,schema,,,,,,,,,,,,,,,,,0,108,108,108,,,,,,,,,,,,,,,f,0.0318951969966,,2018_Aug_07_1034,32.2861142025,Arrows_VVA_Direction,1001,Whi,
,,,,,left_schema_21_WHI.jpg,left,21,schema,,,,,,,,,,,,,,,,,0,109,109,109,,,,,,,,,,,,,,,a,0.0630534952506,0,2018_Aug_07_1034,32.2861142025,Arrows_VVA_Direction,1001,Whi,
,,,,,left_schema_10_WHI.jpg,left,10,schema,,,,,,,,,,,,,,,,,0,110,110,110,,,,,,,,,,,,,,,f,0.0391480051912,,2018_Aug_07_1034,32.2861142025,Arrows_VVA_Direction,1001,Whi,
,,,,,left_schema_1_WHI.jpg,left,1,schema,,,,,,,,,,,,,,,,,0,111,111,111,,,,,,,,,,,,,,,a,0.0417704619467,1,2018_Aug_07_1034,32.2861142025,Arrows_VVA_Direction,1001,Whi,
,,,,,ahead_schema_11_WHI.jpg,ahead,11,schema,,,,,,,,,,,,,,,,,0,112,112,112,,,,,,,,,,,,,,,f,0.000576792750508,,2018_Aug_07_1034,32.2861142025,Arrows_VVA_Direction,1001,Whi,
,,,,,right_schema_19_WHI.jpg,right,19,schema,,,,,,,,,,,,,,,,,0,113,113,113,,,,,,,,,,,,,,,a,0.271384844324,0,2018_Aug_07_1034,32.2861142025,Arrows_VVA_Direction,1001,Whi,
,,,,,left_schema_3_WHI.jpg,left,3,schema,,,,,,,,,,,,,,,,,0,114,114,114,,,,,,,,,,,,,,,a,0.0633654969279,,2018_Aug_07_1034,32.2861142025,Arrows_VVA_Direction,1001,Whi,
,,,,,ahead_schema_19_WHI.jpg,ahead,19,schema,,,,,,,,,,,,,,,,,0,115,115,115,,,,,,,,,,,,,,,f,0.11116949725,1,2018_Aug_07_1034,32.2861142025,Arrows_VVA_Direction,1001,Whi,
,,,,,right_schema_11_WHI.jpg,right,11,schema,,,,,,,,,,,,,,,,,0,116,116,116,,,,,,,,,,,,,,,a,0.000998815987259,,2018_Aug_07_1034,32.2861142025,Arrows_VVA_Direction,1001,Whi,
,,,,,ahead_schema_15_WHI.jpg,ahead,15,schema,,,,,,,,,,,,,,,,,0,117,117,117,,,,,,,,,,,,,,,f,0.0230548745021,1,2018_Aug_07_1034,32.2861142025,Arrows_VVA_Direction,1001,Whi,
,,,,,ahead_schema_8_WHI.jpg,ahead,8,schema,,,,,,,,,,,,,,,,,0,118,118,118,,,,,,,,,,,,,,,a,0.0829477102961,,2018_Aug_07_1034,32.2861142025,Arrows_VVA_Direction,1001,Whi,
,,,,,left_schema_20_WHI.jpg,left,20,schema,,,,,,,,,,,,,,,,,0,119,119,119,,,,,,,,,,,,,,,f,0.0321127772331,1,2018_Aug_07_1034,32.2861142025,Arrows_VVA_Direction,1001,Whi,
,,,,,ahead_image_5_WHI.jpg,ahead,5,image,,,,,,,,,,,,,,,,,0,120,120,120,,,,,,,,,,,,,,,a,0.224657660117,,2018_Aug_07_1034,32.2861142025,Arrows_VVA_Direction,1001,Whi,
,,,,,right_image_5_WHI.jpg,right,5,image,,,,,,,,,,,,,,,,,0,121,121,121,,,,,,,,,,,,,,,f,0.00150458724238,1,2018_Aug_07_1034,32.2861142025,Arrows_VVA_Direction,1001,Whi,
,,,,,left_image_7_WHI.jpg,left,7,image,,,,,,,,,,,,,,,,,0,122,122,122,,,,,,,,,,,,,,,f,0.0316969116684,,2018_Aug_07_1034,32.2861142025,Arrows_VVA_Direction,1001,Whi,
,,,,,ahead_image_17_WHI.jpg,ahead,17,image,,,,,,,,,,,,,,,,,0,123,123,123,,,,,,,,,,,,,,,a,0.0626823774073,0,2018_Aug_07_1034,32.2861142025,Arrows_VVA_Direction,1001,Whi,
,,,,,right_image_6_WHI.jpg,right,6,image,,,,,,,,,,,,,,,,,0,124,124,124,,,,,,,,,,,,,,,a,0.135925602401,,2018_Aug_07_1034,32.2861142025,Arrows_VVA_Direction,1001,Whi,
,,,,,left_image_1_WHI.jpg,left,1,image,,,,,,,,,,,,,,,,,0,125,125,125,,,,,,,,,,,,,,,a,0.0902021606453,0,2018_Aug_07_1034,32.2861142025,Arrows_VVA_Direction,1001,Whi,
,,,,,ahead_image_16_WHI.jpg,ahead,16,image,,,,,,,,,,,,,,,,,0,126,126,126,,,,,,,,,,,,,,,a,0.081176689826,,2018_Aug_07_1034,32.2861142025,Arrows_VVA_Direction,1001,Whi,
,,,,,left_image_4_WHI.jpg,left,4,image,,,,,,,,,,,,,,,,,0,127,127,127,,,,,,,,,,,,,,,f,0.000231948681176,1,2018_Aug_07_1034,32.2861142025,Arrows_VVA_Direction,1001,Whi,
,,,,,left_image_10_WHI.jpg,left,10,image,,,,,,,,,,,,,,,,,0,128,128,128,,,,,,,,,,,,,,,f,0.243780491874,,2018_Aug_07_1034,32.2861142025,Arrows_VVA_Direction,1001,Whi,
,,,,,right_image_4_WHI.jpg,right,4,image,,,,,,,,,,,,,,,,,0,129,129,129,,,,,,,,,,,,,,,a,0.00109529029578,0,2018_Aug_07_1034,32.2861142025,Arrows_VVA_Direction,1001,Whi,
,,,,,left_image_19_WHI.jpg,left,19,image,,,,,,,,,,,,,,,,,0,130,130,130,,,,,,,,,,,,,,,f,0.0454130822327,,2018_Aug_07_1034,32.2861142025,Arrows_VVA_Direction,1001,Whi,
,,,,,ahead_image_2_WHI.jpg,ahead,2,image,,,,,,,,,,,,,,,,,0,131,131,131,,,,,,,,,,,,,,,a,0.0320438083727,0,2018_Aug_07_1034,32.2861142025,Arrows_VVA_Direction,1001,Whi,
,,,,,right_image_1_WHI.jpg,right,1,image,,,,,,,,,,,,,,,,,0,132,132,132,,,,,,,,,,,,,,,f,0.0632148329169,,2018_Aug_07_1034,32.2861142025,Arrows_VVA_Direction,1001,Whi,
,,,,,ahead_image_12_WHI.jpg,ahead,12,image,,,,,,,,,,,,,,,,,0,133,133,133,,,,,,,,,,,,,,,a,0.000730330357328,0,2018_Aug_07_1034,32.2861142025,Arrows_VVA_Direction,1001,Whi,
,,,,,left_image_5_WHI.jpg,left,5,image,,,,,,,,,,,,,,,,,0,134,134,134,,,,,,,,,,,,,,,f,0.0612763168756,,2018_Aug_07_1034,32.2861142025,Arrows_VVA_Direction,1001,Whi,
,,,,,left_image_9_WHI.jpg,left,9,image,,,,,,,,,,,,,,,,,0,135,135,135,,,,,,,,,,,,,,,a,0.0411743745208,1,2018_Aug_07_1034,32.2861142025,Arrows_VVA_Direction,1001,Whi,
,,,,,right_image_18_WHI.jpg,right,18,image,,,,,,,,,,,,,,,,,0,136,136,136,,,,,,,,,,,,,,,f,0.0344692112412,,2018_Aug_07_1034,32.2861142025,Arrows_VVA_Direction,1001,Whi,
,,,,,right_image_3_WHI.jpg,right,3,image,,,,,,,,,,,,,,,,,0,137,137,137,,,,,,,,,,,,,,,a,0.0321759984363,1,2018_Aug_07_1034,32.2861142025,Arrows_VVA_Direction,1001,Whi,
,,,,,ahead_image_4_WHI.jpg,ahead,4,image,,,,,,,,,,,,,,,,,0,138,138,138,,,,,,,,,,,,,,,f,0.0449803848751,,2018_Aug_07_1034,32.2861142025,Arrows_VVA_Direction,1001,Whi,
,,,,,ahead_image_7_WHI.jpg,ahead,7,image,,,,,,,,,,,,,,,,,0,139,139,139,,,,,,,,,,,,,,,a,0.00145532400347,1,2018_Aug_07_1034,32.2861142025,Arrows_VVA_Direction,1001,Whi,
,,,,,left_schema_16_WHI.jpg,left,16,schema,,,,,,,,,,,,,,,,,0,140,140,140,,,,,,,,,,,,,,,a,0.0895132937003,,2018_Aug_07_1034,32.2861142025,Arrows_VVA_Direction,1001,Whi,
,,,,,right_schema_12_WHI.jpg,right,12,schema,,,,,,,,,,,,,,,,,0,141,141,141,,,,,,,,,,,,,,,f,0.107317918446,1,2018_Aug_07_1034,32.2861142025,Arrows_VVA_Direction,1001,Whi,
,,,,,right_schema_18_WHI.jpg,right,18,schema,,,,,,,,,,,,,,,,,0,142,142,142,,,,,,,,,,,,,,,a,0.0315581532195,,2018_Aug_07_1034,32.2861142025,Arrows_VVA_Direction,1001,Whi,
,,,,,right_schema_4_WHI.jpg,right,4,schema,,,,,,,,,,,,,,,,,0,143,143,143,,,,,,,,,,,,,,,f,0.00104274251498,0,2018_Aug_07_1034,32.2861142025,Arrows_VVA_Direction,1001,Whi,
,,,,,left_schema_12_WHI.jpg,left,12,schema,,,,,,,,,,,,,,,,,0,144,144,144,,,,,,,,,,,,,,,a,0.0467834263109,,2018_Aug_07_1034,32.2861142025,Arrows_VVA_Direction,1001,Whi,
,,,,,right_schema_8_WHI.jpg,right,8,schema,,,,,,,,,,,,,,,,,0,145,145,145,,,,,,,,,,,,,,,f,0.0258115739562,1,2018_Aug_07_1034,32.2861142025,Arrows_VVA_Direction,1001,Whi,
,,,,,left_schema_8_WHI.jpg,left,8,schema,,,,,,,,,,,,,,,,,0,146,146,146,,,,,,,,,,,,,,,a,0.0747326225974,,2018_Aug_07_1034,32.2861142025,Arrows_VVA_Direction,1001,Whi,
,,,,,left_schema_18_WHI.jpg,left,18,schema,,,,,,,,,,,,,,,,,0,147,147,147,,,,,,,,,,,,,,,f,0.00170656712726,0,2018_Aug_07_1034,32.2861142025,Arrows_VVA_Direction,1001,Whi,
,,,,,ahead_schema_2_WHI.jpg,ahead,2,schema,,,,,,,,,,,,,,,,,0,148,148,148,,,,,,,,,,,,,,,a,0.00127633335069,,2018_Aug_07_1034,32.2861142025,Arrows_VVA_Direction,1001,Whi,
,,,,,ahead_schema_9_WHI.jpg,ahead,9,schema,,,,,,,,,,,,,,,,,0,149,149,149,,,,,,,,,,,,,,,a,0.0873966084328,1,2018_Aug_07_1034,32.2861142025,Arrows_VVA_Direction,1001,Whi,
,,,,,left_schema_19_WHI.jpg,left,19,schema,,,,,,,,,,,,,,,,,0,150,150,150,,,,,,,,,,,,,,,a,0.125291269971,,2018_Aug_07_1034,32.2861142025,Arrows_VVA_Direction,1001,Whi,
,,,,,ahead_schema_3_WHI.jpg,ahead,3,schema,,,,,,,,,,,,,,,,,0,151,151,151,,,,,,,,,,,,,,,a,0.116746938555,0,2018_Aug_07_1034,32.2861142025,Arrows_VVA_Direction,1001,Whi,
,,,,,left_schema_11_WHI.jpg,left,11,schema,,,,,,,,,,,,,,,,,0,152,152,152,,,,,,,,,,,,,,,a,0.108616009587,,2018_Aug_07_1034,32.2861142025,Arrows_VVA_Direction,1001,Whi,
,,,,,right_schema_3_WHI.jpg,right,3,schema,,,,,,,,,,,,,,,,,0,153,153,153,,,,,,,,,,,,,,,f,0.0944002259057,1,2018_Aug_07_1034,32.2861142025,Arrows_VVA_Direction,1001,Whi,
,,,,,right_schema_6_WHI.jpg,right,6,schema,,,,,,,,,,,,,,,,,0,154,154,154,,,,,,,,,,,,,,,a,0.113262372091,,2018_Aug_07_1034,32.2861142025,Arrows_VVA_Direction,1001,Whi,
,,,,,ahead_schema_4_WHI.jpg,ahead,4,schema,,,,,,,,,,,,,,,,,0,155,155,155,,,,,,,,,,,,,,,f,0.000850615324453,1,2018_Aug_07_1034,32.2861142025,Arrows_VVA_Direction,1001,Whi,
,,,,,ahead_schema_16_WHI.jpg,ahead,16,schema,,,,,,,,,,,,,,,,,0,156,156,156,,,,,,,,,,,,,,,a,0.0433891762514,,2018_Aug_07_1034,32.2861142025,Arrows_VVA_Direction,1001,Whi,
,,,,,right_schema_5_WHI.jpg,right,5,schema,,,,,,,,,,,,,,,,,0,157,157,157,,,,,,,,,,,,,,,f,0.0971622620709,1,2018_Aug_07_1034,32.2861142025,Arrows_VVA_Direction,1001,Whi,
,,,,,ahead_schema_18_WHI.jpg,ahead,18,schema,,,,,,,,,,,,,,,,,0,158,158,158,,,,,,,,,,,,,,,f,0.00196889508516,,2018_Aug_07_1034,32.2861142025,Arrows_VVA_Direction,1001,Whi,
,,,,,ahead_schema_12_WHI.jpg,ahead,12,schema,,,,,,,,,,,,,,,,,0,159,159,159,,,,,,,,,,,,,,,a,0.000842815265059,1,2018_Aug_07_1034,32.2861142025,Arrows_VVA_Direction,1001,Whi,
,,,,,left_word_12_WHI.jpg,left,12,word,,,,,,,,,,,,,,,,,0,160,160,160,,,,,,,,,,,,,,,a,0.176096234471,,2018_Aug_07_1034,32.2861142025,Arrows_VVA_Direction,1001,Whi,
,,,,,right_word_3_WHI.jpg,right,3,word,,,,,,,,,,,,,,,,,0,161,161,161,,,,,,,,,,,,,,,f,0.032625527354,1,2018_Aug_07_1034,32.2861142025,Arrows_VVA_Direction,1001,Whi,
,,,,,left_word_7_WHI.jpg,left,7,word,,,,,,,,,,,,,,,,,0,162,162,162,,,,,,,,,,,,,,,a,0.143263800768,,2018_Aug_07_1034,32.2861142025,Arrows_VVA_Direction,1001,Whi,
,,,,,ahead_word_5_WHI.jpg,ahead,5,word,,,,,,,,,,,,,,,,,0,163,163,163,,,,,,,,,,,,,,,a,0.0642169332132,0,2018_Aug_07_1034,32.2861142025,Arrows_VVA_Direction,1001,Whi,
,,,,,right_word_7_WHI.jpg,right,7,word,,,,,,,,,,,,,,,,,0,164,164,164,,,,,,,,,,,,,,,f,0.038233758416,,2018_Aug_07_1034,32.2861142025,Arrows_VVA_Direction,1001,Whi,
,,,,,right_word_17_WHI.jpg,right,17,word,,,,,,,,,,,,,,,,,0,165,165,165,,,,,,,,,,,,,,,a,0.0524922369514,1,2018_Aug_07_1034,32.2861142025,Arrows_VVA_Direction,1001,Whi,
,,,,,ahead_word_4_WHI.jpg,ahead,4,word,,,,,,,,,,,,,,,,,0,166,166,166,,,,,,,,,,,,,,,f,0.000894131371751,,2018_Aug_07_1034,32.2861142025,Arrows_VVA_Direction,1001,Whi,
,,,,,left_word_20_WHI.jpg,left,20,word,,,,,,,,,,,,,,,,,0,167,167,167,,,,,,,,,,,,,,,a,0.0966913858429,0,2018_Aug_07_1034,32.2861142025,Arrows_VVA_Direction,1001,Whi,
,,,,,left_word_18_WHI.jpg,left,18,word,,,,,,,,,,,,,,,,,0,168,168,168,,,,,,,,,,,,,,,f,0.138213478029,,2018_Aug_07_1034,32.2861142025,Arrows_VVA_Direction,1001,Whi,
,,,,,ahead_word_11_WHI.jpg,ahead,11,word,,,,,,,,,,,,,,,,,0,169,169,169,,,,,,,,,,,,,,,a,0.0275234782603,0,2018_Aug_07_1034,32.2861142025,Arrows_VVA_Direction,1001,Whi,
,,,,,left_word_14_WHI.jpg,left,14,word,,,,,,,,,,,,,,,,,0,170,170,170,,,,,,,,,,,,,,,f,0.0319198288489,,2018_Aug_07_1034,32.2861142025,Arrows_VVA_Direction,1001,Whi,
,,,,,right_word_9_WHI.jpg,right,9,word,,,,,,,,,,,,,,,,,0,171,171,171,,,,,,,,,,,,,,,a,0.0852671966422,0,2018_Aug_07_1034,32.2861142025,Arrows_VVA_Direction,1001,Whi,
,,,,,left_word_8_WHI.jpg,left,8,word,,,,,,,,,,,,,,,,,0,172,172,172,,,,,,,,,,,,,,,f,0.0314325313084,,2018_Aug_07_1034,32.2861142025,Arrows_VVA_Direction,1001,Whi,
,,,,,ahead_word_9_WHI.jpg,ahead,9,word,,,,,,,,,,,,,,,,,0,173,173,173,,,,,,,,,,,,,,,a,0.0358957978897,0,2018_Aug_07_1034,32.2861142025,Arrows_VVA_Direction,1001,Whi,
,,,,,left_word_2_WHI.jpg,left,2,word,,,,,,,,,,,,,,,,,0,174,174,174,,,,,,,,,,,,,,,f,0.132748521864,,2018_Aug_07_1034,32.2861142025,Arrows_VVA_Direction,1001,Whi,
,,,,,right_word_15_WHI.jpg,right,15,word,,,,,,,,,,,,,,,,,0,175,175,175,,,,,,,,,,,,,,,a,0.0944634473417,0,2018_Aug_07_1034,32.2861142025,Arrows_VVA_Direction,1001,Whi,
,,,,,ahead_word_10_WHI.jpg,ahead,10,word,,,,,,,,,,,,,,,,,0,176,176,176,,,,,,,,,,,,,,,f,0.00125744915567,,2018_Aug_07_1034,32.2861142025,Arrows_VVA_Direction,1001,Whi,
,,,,,right_word_6_WHI.jpg,right,6,word,,,,,,,,,,,,,,,,,0,177,177,177,,,,,,,,,,,,,,,f,0.000827625626698,1,2018_Aug_07_1034,32.2861142025,Arrows_VVA_Direction,1001,Whi,
,,,,,ahead_word_1_WHI.jpg,ahead,1,word,,,,,,,,,,,,,,,,,0,178,178,178,,,,,,,,,,,,,,,f,0.133327367017,,2018_Aug_07_1034,32.2861142025,Arrows_VVA_Direction,1001,Whi,
,,,,,ahead_word_17_WHI.jpg,ahead,17,word,,,,,,,,,,,,,,,,,0,179,179,179,,,,,,,,,,,,,,,a,0.0316246584989,1,2018_Aug_07_1034,32.2861142025,Arrows_VVA_Direction,1001,Whi,
,,,,,right_word_11_WHI.jpg,right,11,word,,,,,,,,,,,,,,,,,0,180,180,180,,,,,,,,,,,,,,,a,0.149168843869,,2018_Aug_07_1034,32.2861142025,Arrows_VVA_Direction,1001,Whi,
,,,,,right_word_21_WHI.jpg,right,21,word,,,,,,,,,,,,,,,,,0,181,181,181,,,,,,,,,,,,,,,f,0.11690293951,0,2018_Aug_07_1034,32.2861142025,Arrows_VVA_Direction,1001,Whi,
,,,,,ahead_word_14_WHI.jpg,ahead,14,word,,,,,,,,,,,,,,,,,0,182,182,182,,,,,,,,,,,,,,,a,0.063187738182,,2018_Aug_07_1034,32.2861142025,Arrows_VVA_Direction,1001,Whi,
,,,,,left_word_14_WHI.jpg,left,14,word,,,,,,,,,,,,,,,,,0,183,183,183,,,,,,,,,,,,,,,f,0.025965111563,1,2018_Aug_07_1034,32.2861142025,Arrows_VVA_Direction,1001,Whi,
,,,,,left_word_21_WHI.jpg,left,21,word,,,,,,,,,,,,,,,,,0,184,184,184,,,,,,,,,,,,,,,a,0.0415656082332,,2018_Aug_07_1034,32.2861142025,Arrows_VVA_Direction,1001,Whi,
,,,,,left_word_11_WHI.jpg,left,11,word,,,,,,,,,,,,,,,,,0,185,185,185,,,,,,,,,,,,,,,f,0.0320023449603,0,2018_Aug_07_1034,32.2861142025,Arrows_VVA_Direction,1001,Whi,
,,,,,ahead_word_4_WHI.jpg,ahead,4,word,,,,,,,,,,,,,,,,,0,186,186,186,,,,,,,,,,,,,,,a,0.00048811850138,,2018_Aug_07_1034,32.2861142025,Arrows_VVA_Direction,1001,Whi,
,,,,,right_word_19_WHI.jpg,right,19,word,,,,,,,,,,,,,,,,,0,187,187,187,,,,,,,,,,,,,,,f,0.095729927998,1,2018_Aug_07_1034,32.2861142025,Arrows_VVA_Direction,1001,Whi,
,,,,,left_word_7_WHI.jpg,left,7,word,,,,,,,,,,,,,,,,,0,188,188,188,,,,,,,,,,,,,,,a,0.0789007195272,,2018_Aug_07_1034,32.2861142025,Arrows_VVA_Direction,1001,Whi,
,,,,,ahead_word_7_WHI.jpg,ahead,7,word,,,,,,,,,,,,,,,,,0,189,189,189,,,,,,,,,,,,,,,f,0.0318812390324,1,2018_Aug_07_1034,32.2861142025,Arrows_VVA_Direction,1001,Whi,
,,,,,left_word_5_WHI.jpg,left,5,word,,,,,,,,,,,,,,,,,0,190,190,190,,,,,,,,,,,,,,,a,0.0625427975319,,2018_Aug_07_1034,32.2861142025,Arrows_VVA_Direction,1001,Whi,
,,,,,ahead_word_9_WHI.jpg,ahead,9,word,,,,,,,,,,,,,,,,,0,191,191,191,,,,,,,,,,,,,,,f,0.110141533893,1,2018_Aug_07_1034,32.2861142025,Arrows_VVA_Direction,1001,Whi,
,,,,,right_word_14_WHI.jpg,right,14,word,,,,,,,,,,,,,,,,,0,192,192,192,,,,,,,,,,,,,,,a,0.000817772932351,,2018_Aug_07_1034,32.2861142025,Arrows_VVA_Direction,1001,Whi,
,,,,,left_word_1_WHI.jpg,left,1,word,,,,,,,,,,,,,,,,,0,193,193,193,,,,,,,,,,,,,,,f,0.0752909416333,1,2018_Aug_07_1034,32.2861142025,Arrows_VVA_Direction,1001,Whi,
,,,,,ahead_word_3_WHI.jpg,ahead,3,word,,,,,,,,,,,,,,,,,0,194,194,194,,,,,,,,,,,,,,,a,0.0319473340642,,2018_Aug_07_1034,32.2861142025,Arrows_VVA_Direction,1001,Whi,
,,,,,ahead_word_2_WHI.jpg,ahead,2,word,,,,,,,,,,,,,,,,,0,195,195,195,,,,,,,,,,,,,,,f,0.112549694488,0,2018_Aug_07_1034,32.2861142025,Arrows_VVA_Direction,1001,Whi,
,,,,,right_word_1_WHI.jpg,right,1,word,,,,,,,,,,,,,,,,,0,196,196,196,,,,,,,,,,,,,,,f,0.0386627605185,,2018_Aug_07_1034,32.2861142025,Arrows_VVA_Direction,1001,Whi,
,,,,,left_word_6_WHI.jpg,left,6,word,,,,,,,,,,,,,,,,,0,197,197,197,,,,,,,,,,,,,,,a,0.0404025807511,0,2018_Aug_07_1034,32.2861142025,Arrows_VVA_Direction,1001,Whi,
,,,,,ahead_word_17_WHI.jpg,ahead,17,word,,,,,,,,,,,,,,,,,0,198,198,198,,,,,,,,,,,,,,,f,0.031514226459,,2018_Aug_07_1034,32.2861142025,Arrows_VVA_Direction,1001,Whi,
,,,,,right_word_2_WHI.jpg,right,2,word,,,,,,,,,,,,,,,,,0,199,199,199,,,,,,,,,,,,,,,a,0.00181699940003,0,2018_Aug_07_1034,32.2861142025,Arrows_VVA_Direction,1001,Whi,
,,,,,right_schema_2_WHI.jpg,right,2,schema,,,,,,,,,,,,,,,,,0,200,200,200,,,,,,,,,,,,,,,a,0.204536012374,,2018_Aug_07_1034,32.2861142025,Arrows_VVA_Direction,1001,Whi,
,,,,,left_schema_1_WHI.jpg,left,1,schema,,,,,,,,,,,,,,,,,0,201,201,201,,,,,,,,,,,,,,,f,0.000913836527616,1,2018_Aug_07_1034,32.2861142025,Arrows_VVA_Direction,1001,Whi,
,,,,,right_schema_8_WHI.jpg,right,8,schema,,,,,,,,,,,,,,,,,0,202,202,202,,,,,,,,,,,,,,,a,0.0773907953408,,2018_Aug_07_1034,32.2861142025,Arrows_VVA_Direction,1001,Whi,
,,,,,ahead_schema_20_WHI.jpg,ahead,20,schema,,,,,,,,,,,,,,,,,0,203,203,203,,,,,,,,,,,,,,,f,0.119567269925,1,2018_Aug_07_1034,32.2861142025,Arrows_VVA_Direction,1001,Whi,
,,,,,ahead_schema_14_WHI.jpg,ahead,14,schema,,,,,,,,,,,,,,,,,0,204,204,204,,,,,,,,,,,,,,,f,0.0644115237519,,2018_Aug_07_1034,32.2861142025,Arrows_VVA_Direction,1001,Whi,
,,,,,left_schema_14_WHI.jpg,left,14,schema,,,,,,,,,,,,,,,,,0,205,205,205,,,,,,,,,,,,,,,a,0.0296545319725,0,2018_Aug_07_1034,32.2861142025,Arrows_VVA_Direction,1001,Whi,
,,,,,left_schema_20_WHI.jpg,left,20,schema,,,,,,,,,,,,,,,,,0,206,206,206,,,,,,,,,,,,,,,a,0.183927888284,,2018_Aug_07_1034,32.2861142025,Arrows_VVA_Direction,1001,Whi,
,,,,,left_schema_5_WHI.jpg,left,5,schema,,,,,,,,,,,,,,,,,0,207,207,207,,,,,,,,,,,,,,,a,0.149041579803,1,2018_Aug_07_1034,32.2861142025,Arrows_VVA_Direction,1001,Whi,
,,,,,right_schema_14_WHI.jpg,right,14,schema,,,,,,,,,,,,,,,,,0,208,208,208,,,,,,,,,,,,,,,f,0.108521177433,,2018_Aug_07_1034,32.2861142025,Arrows_VVA_Direction,1001,Whi,
,,,,,right_schema_16_WHI.jpg,right,16,schema,,,,,,,,,,,,,,,,,0,209,209,209,,,,,,,,,,,,,,,a,0.00105587951839,1,2018_Aug_07_1034,32.2861142025,Arrows_VVA_Direction,1001,Whi,
,,,,,ahead_schema_8_WHI.jpg,ahead,8,schema,,,,,,,,,,,,,,,,,0,210,210,210,,,,,,,,,,,,,,,f,0.00104151084088,,2018_Aug_07_1034,32.2861142025,Arrows_VVA_Direction,1001,Whi,
,,,,,left_schema_18_WHI.jpg,left,18,schema,,,,,,,,,,,,,,,,,0,211,211,211,,,,,,,,,,,,,,,a,0.0459073586389,0,2018_Aug_07_1034,32.2861142025,Arrows_VVA_Direction,1001,Whi,
,,,,,right_schema_9_WHI.jpg,right,9,schema,,,,,,,,,,,,,,,,,0,212,212,212,,,,,,,,,,,,,,,f,0.0839732105378,,2018_Aug_07_1034,32.2861142025,Arrows_VVA_Direction,1001,Whi,
,,,,,ahead_schema_5_WHI.jpg,ahead,5,schema,,,,,,,,,,,,,,,,,0,213,213,213,,,,,,,,,,,,,,,a,0.0287718954496,0,2018_Aug_07_1034,32.2861142025,Arrows_VVA_Direction,1001,Whi,
,,,,,right_schema_19_WHI.jpg,right,19,schema,,,,,,,,,,,,,,,,,0,214,214,214,,,,,,,,,,,,,,,f,0.0317966700532,,2018_Aug_07_1034,32.2861142025,Arrows_VVA_Direction,1001,Whi,
,,,,,ahead_schema_1_WHI.jpg,ahead,1,schema,,,,,,,,,,,,,,,,,0,215,215,215,,,,,,,,,,,,,,,f,0.110071333591,1,2018_Aug_07_1034,32.2861142025,Arrows_VVA_Direction,1001,Whi,
,,,,,ahead_schema_4_WHI.jpg,ahead,4,schema,,,,,,,,,,,,,,,,,0,216,216,216,,,,,,,,,,,,,,,a,0.0882069917861,,2018_Aug_07_1034,32.2861142025,Arrows_VVA_Direction,1001,Whi,
,,,,,left_schema_4_WHI.jpg,left,4,schema,,,,,,,,,,,,,,,,,0,217,217,217,,,,,,,,,,,,,,,f,0.0630711480044,1,2018_Aug_07_1034,32.2861142025,Arrows_VVA_Direction,1001,Whi,
,,,,,left_schema_6_WHI.jpg,left,6,schema,,,,,,,,,,,,,,,,,0,218,218,218,,,,,,,,,,,,,,,a,0.0316743326839,,2018_Aug_07_1034,32.2861142025,Arrows_VVA_Direction,1001,Whi,
,,,,,right_schema_1_WHI.jpg,right,1,schema,,,,,,,,,,,,,,,,,0,219,219,219,,,,,,,,,,,,,,,f,0.0441749277525,1,2018_Aug_07_1034,32.2861142025,Arrows_VVA_Direction,1001,Whi,
,,,,,left_image_13_WHI.jpg,left,13,image,,,,,,,,,,,,,,,,,0,220,220,220,,,,,,,,,,,,,,,a,0.255290071247,,2018_Aug_07_1034,32.2861142025,Arrows_VVA_Direction,1001,Whi,
,,,,,left_image_7_WHI.jpg,left,7,image,,,,,,,,,,,,,,,,,0,221,221,221,,,,,,,,,,,,,,,f,0.000505360774696,0,2018_Aug_07_1034,32.2861142025,Arrows_VVA_Direction,1001,Whi,
,,,,,ahead_image_13_WHI.jpg,ahead,13,image,,,,,,,,,,,,,,,,,0,222,222,222,,,,,,,,,,,,,,,a,0.0967336702161,,2018_Aug_07_1034,32.2861142025,Arrows_VVA_Direction,1001,Whi,
,,,,,right_image_12_WHI.jpg,right,12,image,,,,,,,,,,,,,,,,,0,223,223,223,,,,,,,,,,,,,,,f,0.00243771867827,1,2018_Aug_07_1034,32.2861142025,Arrows_VVA_Direction,1001,Whi,
,,,,,ahead_image_5_WHI.jpg,ahead,5,image,,,,,,,,,,,,,,,,,0,224,224,224,,,,,,,,,,,,,,,a,0.0212239171378,,2018_Aug_07_1034,32.2861142025,Arrows_VVA_Direction,1001,Whi,
,,,,,ahead_image_4_WHI.jpg,ahead,4,image,,,,,,,,,,,,,,,,,0,225,225,225,,,,,,,,,,,,,,,f,0.121866640635,0,2018_Aug_07_1034,32.2861142025,Arrows_VVA_Direction,1001,Whi,
,,,,,ahead_image_14_WHI.jpg,ahead,14,image,,,,,,,,,,,,,,,,,0,226,226,226,,,,,,,,,,,,,,,a,0.000520550180227,,2018_Aug_07_1034,32.2861142025,Arrows_VVA_Direction,1001,Whi,
,,,,,right_image_9_WHI.jpg,right,9,image,,,,,,,,,,,,,,,,,0,227,227,227,,,,,,,,,,,,,,,f,0.0206536927726,1,2018_Aug_07_1034,32.2861142025,Arrows_VVA_Direction,1001,Whi,
,,,,,right_image_20_WHI.jpg,right,20,image,,,,,,,,,,,,,,,,,0,228,228,228,,,,,,,,,,,,,,,a,0.0646660514176,,2018_Aug_07_1034,32.2861142025,Arrows_VVA_Direction,1001,Whi,
,,,,,left_image_21_WHI.jpg,left,21,image,,,,,,,,,,,,,,,,,0,229,229,229,,,,,,,,,,,,,,,f,0.0552366203628,1,2018_Aug_07_1034,32.2861142025,Arrows_VVA_Direction,1001,Whi,
,,,,,ahead_image_3_WHI.jpg,ahead,3,image,,,,,,,,,,,,,,,,,0,230,230,230,,,,,,,,,,,,,,,a,0.120013925014,,2018_Aug_07_1034,32.2861142025,Arrows_VVA_Direction,1001,Whi,
,,,,,right_image_21_WHI.jpg,right,21,image,,,,,,,,,,,,,,,,,0,231,231,231,,,,,,,,,,,,,,,a,0.0238960476127,0,2018_Aug_07_1034,32.2861142025,Arrows_VVA_Direction,1001,Whi,
,,,,,ahead_image_21_WHI.jpg,ahead,21,image,,,,,,,,,,,,,,,,,0,232,232,232,,,,,,,,,,,,,,,f,0.0718815017026,,2018_Aug_07_1034,32.2861142025,Arrows_VVA_Direction,1001,Whi,
,,,,,left_image_10_WHI.jpg,left,10,image,,,,,,,,,,,,,,,,,0,233,233,233,,,,,,,,,,,,,,,a,0.0941473403946,0,2018_Aug_07_1034,32.2861142025,Arrows_VVA_Direction,1001,Whi,
,,,,,right_image_4_WHI.jpg,right,4,image,,,,,,,,,,,,,,,,,0,234,234,234,,,,,,,,,,,,,,,f,0.0624853237532,,2018_Aug_07_1034,32.2861142025,Arrows_VVA_Direction,1001,Whi,
,,,,,right_image_17_WHI.jpg,right,17,image,,,,,,,,,,,,,,,,,0,235,235,235,,,,,,,,,,,,,,,a,0.0210014106706,1,2018_Aug_07_1034,32.2861142025,Arrows_VVA_Direction,1001,Whi,
,,,,,left_image_2_WHI.jpg,left,2,image,,,,,,,,,,,,,,,,,0,236,236,236,,,,,,,,,,,,,,,f,0.102934704628,,2018_Aug_07_1034,32.2861142025,Arrows_VVA_Direction,1001,Whi,
,,,,,left_image_14_WHI.jpg,left,14,image,,,,,,,,,,,,,,,,,0,237,237,237,,,,,,,,,,,,,,,a,0.00174187263474,1,2018_Aug_07_1034,32.2861142025,Arrows_VVA_Direction,1001,Whi,
,,,,,left_image_4_WHI.jpg,left,4,image,,,,,,,,,,,,,,,,,0,238,238,238,,,,,,,,,,,,,,,f,0.0944092574064,,2018_Aug_07_1034,32.2861142025,Arrows_VVA_Direction,1001,Whi,
,,,,,right_image_11_WHI.jpg,right,11,image,,,,,,,,,,,,,,,,,0,239,239,239,,,,,,,,,,,,,,,a,0.0416378611699,0,2018_Aug_07_1034,32.2861142025,Arrows_VVA_Direction,1001,Whi,
,,,,,ahead_image_2_WHI.jpg,ahead,2,image,,,,,,,,,,,,,,,,,0,240,240,240,,,,,,,,,,,,,,,a,0.00117698544636,,2018_Aug_07_1034,32.2861142025,Arrows_VVA_Direction,1001,Whi,
,,,,,left_image_1_WHI.jpg,left,1,image,,,,,,,,,,,,,,,,,0,241,241,241,,,,,,,,,,,,,,,a,0.0608161145356,0,2018_Aug_07_1034,32.2861142025,Arrows_VVA_Direction,1001,Whi,
,,,,,left_image_11_WHI.jpg,left,11,image,,,,,,,,,,,,,,,,,0,242,242,242,,,,,,,,,,,,,,,f,0.0844781605992,,2018_Aug_07_1034,32.2861142025,Arrows_VVA_Direction,1001,Whi,
,,,,,right_image_8_WHI.jpg,right,8,image,,,,,,,,,,,,,,,,,0,243,243,243,,,,,,,,,,,,,,,a,0.00123897520825,0,2018_Aug_07_1034,32.2861142025,Arrows_VVA_Direction,1001,Whi,
,,,,,right_image_18_WHI.jpg,right,18,image,,,,,,,,,,,,,,,,,0,244,244,244,,,,,,,,,,,,,,,f,0.000746751436964,,2018_Aug_07_1034,32.2861142025,Arrows_VVA_Direction,1001,Whi,
,,,,,ahead_image_15_WHI.jpg,ahead,15,image,,,,,,,,,,,,,,,,,0,245,245,245,,,,,,,,,,,,,,,a,0.00050659221597,0,2018_Aug_07_1034,32.2861142025,Arrows_VVA_Direction,1001,Whi,
,,,,,left_image_18_WHI.jpg,left,18,image,,,,,,,,,,,,,,,,,0,246,246,246,,,,,,,,,,,,,,,a,0.191601488274,,2018_Aug_07_1034,32.2861142025,Arrows_VVA_Direction,1001,Whi,
,,,,,left_image_5_WHI.jpg,left,5,image,,,,,,,,,,,,,,,,,0,247,247,247,,,,,,,,,,,,,,,f,0.00052588712424,0,2018_Aug_07_1034,32.2861142025,Arrows_VVA_Direction,1001,Whi,
,,,,,right_image_2_WHI.jpg,right,2,image,,,,,,,,,,,,,,,,,0,248,248,248,,,,,,,,,,,,,,,a,0.0942844569217,,2018_Aug_07_1034,32.2861142025,Arrows_VVA_Direction,1001,Whi,
,,,,,ahead_image_16_WHI.jpg,ahead,16,image,,,,,,,,,,,,,,,,,0,249,249,249,,,,,,,,,,,,,,,a,0.152171039488,0,2018_Aug_07_1034,32.2861142025,Arrows_VVA_Direction,1001,Whi,
,,,,,ahead_image_9_WHI.jpg,ahead,9,image,,,,,,,,,,,,,,,,,0,250,250,250,,,,,,,,,,,,,,,a,0.208507876378,,2018_Aug_07_1034,32.2861142025,Arrows_VVA_Direction,1001,Whi,
,,,,,ahead_image_18_WHI.jpg,ahead,18,image,,,,,,,,,,,,,,,,,0,251,251,251,,,,,,,,,,,,,,,f,0.0423940548208,0,2018_Aug_07_1034,32.2861142025,Arrows_VVA_Direction,1001,Whi,
,,,,,left_image_3_WHI.jpg,left,3,image,,,,,,,,,,,,,,,,,0,252,252,252,,,,,,,,,,,,,,,a,0.0383088849485,,2018_Aug_07_1034,32.2861142025,Arrows_VVA_Direction,1001,Whi,
,,,,,left_image_9_WHI.jpg,left,9,image,,,,,,,,,,,,,,,,,0,253,253,253,,,,,,,,,,,,,,,f,0.00025493837893,0,2018_Aug_07_1034,32.2861142025,Arrows_VVA_Direction,1001,Whi,
,,,,,right_image_3_WHI.jpg,right,3,image,,,,,,,,,,,,,,,,,0,254,254,254,,,,,,,,,,,,,,,a,0.00103699509054,,2018_Aug_07_1034,32.2861142025,Arrows_VVA_Direction,1001,Whi,
,,,,,ahead_image_10_WHI.jpg,ahead,10,image,,,,,,,,,,,,,,,,,0,255,255,255,,,,,,,,,,,,,,,f,0.0428058151156,1,2018_Aug_07_1034,32.2861142025,Arrows_VVA_Direction,1001,Whi,
,,,,,right_image_13_WHI.jpg,right,13,image,,,,,,,,,,,,,,,,,0,256,256,256,,,,,,,,,,,,,,,a,0.0457008625381,,2018_Aug_07_1034,32.2861142025,Arrows_VVA_Direction,1001,Whi,
,,,,,right_image_19_WHI.jpg,right,19,image,,,,,,,,,,,,,,,,,0,257,257,257,,,,,,,,,,,,,,,f,0.0638211835176,0,2018_Aug_07_1034,32.2861142025,Arrows_VVA_Direction,1001,Whi,
,,,,,right_image_14_WHI.jpg,right,14,image,,,,,,,,,,,,,,,,,0,258,258,258,,,,,,,,,,,,,,,a,0.0321053876542,,2018_Aug_07_1034,32.2861142025,Arrows_VVA_Direction,1001,Whi,
,,,,,ahead_image_11_WHI.jpg,ahead,11,image,,,,,,,,,,,,,,,,,0,259,259,259,,,,,,,,,,,,,,,f,0.000987731851637,1,2018_Aug_07_1034,32.2861142025,Arrows_VVA_Direction,1001,Whi,
,,,,,right_word_9_WHI.jpg,right,9,word,,,,,,,,,,,,,,,,,0,260,260,260,,,,,,,,,,,,,,,a,0.162111167796,,2018_Aug_07_1034,32.2861142025,Arrows_VVA_Direction,1001,Whi,
,,,,,left_word_17_WHI.jpg,left,17,word,,,,,,,,,,,,,,,,,0,261,261,261,,,,,,,,,,,,,,,f,0.00136131281033,1,2018_Aug_07_1034,32.2861142025,Arrows_VVA_Direction,1001,Whi,
,,,,,ahead_word_8_WHI.jpg,ahead,8,word,,,,,,,,,,,,,,,,,0,262,262,262,,,,,,,,,,,,,,,a,0.000242211855948,,2018_Aug_07_1034,32.2861142025,Arrows_VVA_Direction,1001,Whi,
,,,,,left_word_4_WHI.jpg,left,4,word,,,,,,,,,,,,,,,,,0,263,263,263,,,,,,,,,,,,,,,f,0.0920376339927,1,2018_Aug_07_1034,32.2861142025,Arrows_VVA_Direction,1001,Whi,
,,,,,left_word_8_WHI.jpg,left,8,word,,,,,,,,,,,,,,,,,0,264,264,264,,,,,,,,,,,,,,,a,0.0547316703014,,2018_Aug_07_1034,32.2861142025,Arrows_VVA_Direction,1001,Whi,
,,,,,right_word_8_WHI.jpg,right,8,word,,,,,,,,,,,,,,,,,0,265,265,265,,,,,,,,,,,,,,,f,0.0535665901843,1,2018_Aug_07_1034,32.2861142025,Arrows_VVA_Direction,1001,Whi,
,,,,,ahead_word_12_WHI.jpg,ahead,12,word,,,,,,,,,,,,,,,,,0,266,266,266,,,,,,,,,,,,,,,a,0.0975378958974,,2018_Aug_07_1034,32.2861142025,Arrows_VVA_Direction,1001,Whi,
,,,,,left_word_16_WHI.jpg,left,16,word,,,,,,,,,,,,,,,,,0,267,267,267,,,,,,,,,,,,,,,f,0.0424466026016,1,2018_Aug_07_1034,32.2861142025,Arrows_VVA_Direction,1001,Whi,
,,,,,right_word_18_WHI.jpg,right,18,word,,,,,,,,,,,,,,,,,0,268,268,268,,,,,,,,,,,,,,,a,0.0759383451659,,2018_Aug_07_1034,32.2861142025,Arrows_VVA_Direction,1001,Whi,
,,,,,left_word_9_WHI.jpg,left,9,word,,,,,,,,,,,,,,,,,0,269,269,269,,,,,,,,,,,,,,,f,0.0642555230297,1,2018_Aug_07_1034,32.2861142025,Arrows_VVA_Direction,1001,Whi,
,,,,,ahead_word_11_WHI.jpg,ahead,11,word,,,,,,,,,,,,,,,,,0,270,270,270,,,,,,,,,,,,,,,a,0.0628905154299,,2018_Aug_07_1034,32.2861142025,Arrows_VVA_Direction,1001,Whi,
,,,,,left_word_12_WHI.jpg,left,12,word,,,,,,,,,,,,,,,,,0,271,271,271,,,,,,,,,,,,,,,f,0.0621630586684,1,2018_Aug_07_1034,32.2861142025,Arrows_VVA_Direction,1001,Whi,
,,,,,left_word_2_WHI.jpg,left,2,word,,,,,,,,,,,,,,,,,0,272,272,272,,,,,,,,,,,,,,,a,0.0433005020022,,2018_Aug_07_1034,32.2861142025,Arrows_VVA_Direction,1001,Whi,
,,,,,right_word_6_WHI.jpg,right,6,word,,,,,,,,,,,,,,,,,0,273,273,273,,,,,,,,,,,,,,,f,0.126379991882,1,2018_Aug_07_1034,32.2861142025,Arrows_VVA_Direction,1001,Whi,
,,,,,ahead_word_15_WHI.jpg,ahead,15,word,,,,,,,,,,,,,,,,,0,274,274,274,,,,,,,,,,,,,,,a,0.000511518679559,,2018_Aug_07_1034,32.2861142025,Arrows_VVA_Direction,1001,Whi,
,,,,,ahead_word_19_WHI.jpg,ahead,19,word,,,,,,,,,,,,,,,,,0,275,275,275,,,,,,,,,,,,,,,f,0.0912178084254,0,2018_Aug_07_1034,32.2861142025,Arrows_VVA_Direction,1001,Whi,
,,,,,ahead_word_20_WHI.jpg,ahead,20,word,,,,,,,,,,,,,,,,,0,276,276,276,,,,,,,,,,,,,,,a,0.0900613493286,,2018_Aug_07_1034,32.2861142025,Arrows_VVA_Direction,1001,Whi,
,,,,,ahead_word_13_WHI.jpg,ahead,13,word,,,,,,,,,,,,,,,,,0,277,277,277,,,,,,,,,,,,,,,f,0.0633860232774,0,2018_Aug_07_1034,32.2861142025,Arrows_VVA_Direction,1001,Whi,
,,,,,right_word_4_WHI.jpg,right,4,word,,,,,,,,,,,,,,,,,0,278,278,278,,,,,,,,,,,,,,,a,0.0625169344712,,2018_Aug_07_1034,32.2861142025,Arrows_VVA_Direction,1001,Whi,
,,,,,right_word_20_WHI.jpg,right,20,word,,,,,,,,,,,,,,,,,0,279,279,279,,,,,,,,,,,,,,,f,0.0320635137614,0,2018_Aug_07_1034,32.2861142025,Arrows_VVA_Direction,1001,Whi,
,,,,,ahead_schema_7_WHI.jpg,ahead,7,schema,,,,,,,,,,,,,,,,,0,280,280,280,,,,,,,,,,,,,,,a,0.0430619849358,,2018_Aug_07_1034,32.2861142025,Arrows_VVA_Direction,1001,Whi,
,,,,,ahead_schema_6_WHI.jpg,ahead,6,schema,,,,,,,,,,,,,,,,,0,281,281,281,,,,,,,,,,,,,,,a,0.310984841548,1,2018_Aug_07_1034,32.2861142025,Arrows_VVA_Direction,1001,Whi,
,,,,,left_schema_13_WHI.jpg,left,13,schema,,,,,,,,,,,,,,,,,0,282,282,282,,,,,,,,,,,,,,,a,0.0844629711937,,2018_Aug_07_1034,32.2861142025,Arrows_VVA_Direction,1001,Whi,
,,,,,right_schema_15_WHI.jpg,right,15,schema,,,,,,,,,,,,,,,,,0,283,283,283,,,,,,,,,,,,,,,f,0.0906307525001,1,2018_Aug_07_1034,32.2861142025,Arrows_VVA_Direction,1001,Whi,
,,,,,ahead_schema_16_WHI.jpg,ahead,16,schema,,,,,,,,,,,,,,,,,0,284,284,284,,,,,,,,,,,,,,,a,0.031739606522,,2018_Aug_07_1034,32.2861142025,Arrows_VVA_Direction,1001,Whi,
,,,,,right_schema_21_WHI.jpg,right,21,schema,,,,,,,,,,,,,,,,,0,285,285,285,,,,,,,,,,,,,,,f,0.0634352867492,1,2018_Aug_07_1034,32.2861142025,Arrows_VVA_Direction,1001,Whi,
,,,,,left_schema_10_WHI.jpg,left,10,schema,,,,,,,,,,,,,,,,,0,286,286,286,,,,,,,,,,,,,,,a,0.0856883989181,,2018_Aug_07_1034,32.2861142025,Arrows_VVA_Direction,1001,Whi,
,,,,,left_schema_17_WHI.jpg,left,17,schema,,,,,,,,,,,,,,,,,0,287,287,287,,,,,,,,,,,,,,,f,0.0752174570225,0,2018_Aug_07_1034,32.2861142025,Arrows_VVA_Direction,1001,Whi,
,,,,,ahead_schema_21_WHI.jpg,ahead,21,schema,,,,,,,,,,,,,,,,,0,288,288,288,,,,,,,,,,,,,,,a,0.0016458092723,,2018_Aug_07_1034,32.2861142025,Arrows_VVA_Direction,1001,Whi,
,,,,,left_schema_15_WHI.jpg,left,15,schema,,,,,,,,,,,,,,,,,0,289,289,289,,,,,,,,,,,,,,,f,0.00128454412334,1,2018_Aug_07_1034,32.2861142025,Arrows_VVA_Direction,1001,Whi,
,,,,,right_schema_4_WHI.jpg,right,4,schema,,,,,,,,,,,,,,,,,0,290,290,290,,,,,,,,,,,,,,,a,0.000837478321046,,2018_Aug_07_1034,32.2861142025,Arrows_VVA_Direction,1001,Whi,
,,,,,left_schema_9_WHI.jpg,left,9,schema,,,,,,,,,,,,,,,,,0,291,291,291,,,,,,,,,,,,,,,f,0.0674235720653,1,2018_Aug_07_1034,32.2861142025,Arrows_VVA_Direction,1001,Whi,
,,,,,left_schema_16_WHI.jpg,left,16,schema,,,,,,,,,,,,,,,,,0,292,292,292,,,,,,,,,,,,,,,a,0.205181773752,,2018_Aug_07_1034,32.2861142025,Arrows_VVA_Direction,1001,Whi,
,,,,,right_schema_11_WHI.jpg,right,11,schema,,,,,,,,,,,,,,,,,0,293,293,293,,,,,,,,,,,,,,,a,0.0632702542935,0,2018_Aug_07_1034,32.2861142025,Arrows_VVA_Direction,1001,Whi,
,,,,,left_schema_8_WHI.jpg,left,8,schema,,,,,,,,,,,,,,,,,0,294,294,294,,,,,,,,,,,,,,,f,0.0929695337545,,2018_Aug_07_1034,32.2861142025,Arrows_VVA_Direction,1001,Whi,
,,,,,right_schema_5_WHI.jpg,right,5,schema,,,,,,,,,,,,,,,,,0,295,295,295,,,,,,,,,,,,,,,f,0.20571710309,1,2018_Aug_07_1034,32.2861142025,Arrows_VVA_Direction,1001,Whi,
,,,,,ahead_schema_19_WHI.jpg,ahead,19,schema,,,,,,,,,,,,,,,,,0,296,296,296,,,,,,,,,,,,,,,a,0.0459209058899,,2018_Aug_07_1034,32.2861142025,Arrows_VVA_Direction,1001,Whi,
,,,,,right_schema_6_WHI.jpg,right,6,schema,,,,,,,,,,,,,,,,,0,297,297,297,,,,,,,,,,,,,,,f,0.0469369641505,1,2018_Aug_07_1034,32.2861142025,Arrows_VVA_Direction,1001,Whi,
,,,,,ahead_schema_13_WHI.jpg,ahead,13,schema,,,,,,,,,,,,,,,,,0,298,298,298,,,,,,,,,,,,,,,a,0.0863074760418,,2018_Aug_07_1034,32.2861142025,Arrows_VVA_Direction,1001,Whi,
,,,,,ahead_schema_11_WHI.jpg,ahead,11,schema,,,,,,,,,,,,,,,,,0,299,299,299,,,,,,,,,,,,,,,f,0.00106819532812,0,2018_Aug_07_1034,32.2861142025,Arrows_VVA_Direction,1001,Whi,
,,,,,right_schema_10_WHI.jpg,right,10,schema,,,,,,,,,,,,,,,,,0,300,300,300,,,,,,,,,,,,,,,f,0.000811615027487,,2018_Aug_07_1034,32.2861142025,Arrows_VVA_Direction,1001,Whi,
,,,,,ahead_schema_12_WHI.jpg,ahead,12,schema,,,,,,,,,,,,,,,,,0,301,301,301,,,,,,,,,,,,,,,a,0.0314571631607,0,2018_Aug_07_1034,32.2861142025,Arrows_VVA_Direction,1001,Whi,
,,,,,right_schema_17_WHI.jpg,right,17,schema,,,,,,,,,,,,,,,,,0,302,302,302,,,,,,,,,,,,,,,f,0.0936900114175,,2018_Aug_07_1034,32.2861142025,Arrows_VVA_Direction,1001,Whi,
,,,,,left_schema_11_WHI.jpg,left,11,schema,,,,,,,,,,,,,,,,,0,303,303,303,,,,,,,,,,,,,,,a,0.0281010917388,0,2018_Aug_07_1034,32.2861142025,Arrows_VVA_Direction,1001,Whi,
,,,,,left_schema_12_WHI.jpg,left,12,schema,,,,,,,,,,,,,,,,,0,304,304,304,,,,,,,,,,,,,,,a,0.222568480298,,2018_Aug_07_1034,32.2861142025,Arrows_VVA_Direction,1001,Whi,
,,,,,left_schema_7_WHI.jpg,left,7,schema,,,,,,,,,,,,,,,,,0,305,305,305,,,,,,,,,,,,,,,f,0.0943842153065,0,2018_Aug_07_1034,32.2861142025,Arrows_VVA_Direction,1001,Whi,
,,,,,ahead_schema_17_WHI.jpg,ahead,17,schema,,,,,,,,,,,,,,,,,0,306,306,306,,,,,,,,,,,,,,,a,0.0557050334755,,2018_Aug_07_1034,32.2861142025,Arrows_VVA_Direction,1001,Whi,
,,,,,left_schema_2_WHI.jpg,left,2,schema,,,,,,,,,,,,,,,,,0,307,307,307,,,,,,,,,,,,,,,f,0.112721295562,1,2018_Aug_07_1034,32.2861142025,Arrows_VVA_Direction,1001,Whi,
,,,,,ahead_schema_15_WHI.jpg,ahead,15,schema,,,,,,,,,,,,,,,,,0,308,308,308,,,,,,,,,,,,,,,a,0.0634755187202,,2018_Aug_07_1034,32.2861142025,Arrows_VVA_Direction,1001,Whi,
,,,,,right_schema_20_WHI.jpg,right,20,schema,,,,,,,,,,,,,,,,,0,309,309,309,,,,,,,,,,,,,,,f,0.0762996103149,1,2018_Aug_07_1034,32.2861142025,Arrows_VVA_Direction,1001,Whi,
,,,,,ahead_schema_3_WHI.jpg,ahead,3,schema,,,,,,,,,,,,,,,,,0,310,310,310,,,,,,,,,,,,,,,a,0.0707800537348,,2018_Aug_07_1034,32.2861142025,Arrows_VVA_Direction,1001,Whi,
,,,,,left_schema_3_WHI.jpg,left,3,schema,,,,,,,,,,,,,,,,,0,311,311,311,,,,,,,,,,,,,,,a,0.190809168154,0,2018_Aug_07_1034,32.2861142025,Arrows_VVA_Direction,1001,Whi,
,,,,,left_schema_19_WHI.jpg,left,19,schema,,,,,,,,,,,,,,,,,0,312,312,312,,,,,,,,,,,,,,,f,0.176846680697,,2018_Aug_07_1034,32.2861142025,Arrows_VVA_Direction,1001,Whi,
,,,,,ahead_schema_2_WHI.jpg,ahead,2,schema,,,,,,,,,,,,,,,,,0,313,313,313,,,,,,,,,,,,,,,a,0.225549328374,0,2018_Aug_07_1034,32.2861142025,Arrows_VVA_Direction,1001,Whi,
,,,,,right_schema_13_WHI.jpg,right,13,schema,,,,,,,,,,,,,,,,,0,314,314,314,,,,,,,,,,,,,,,f,0.0630083370488,,2018_Aug_07_1034,32.2861142025,Arrows_VVA_Direction,1001,Whi,
,,,,,left_schema_21_WHI.jpg,left,21,schema,,,,,,,,,,,,,,,,,0,315,315,315,,,,,,,,,,,,,,,a,0.00123651209287,0,2018_Aug_07_1034,32.2861142025,Arrows_VVA_Direction,1001,Whi,
,,,,,right_schema_18_WHI.jpg,right,18,schema,,,,,,,,,,,,,,,,,0,316,316,316,,,,,,,,,,,,,,,a,0.239565595053,,2018_Aug_07_1034,32.2861142025,Arrows_VVA_Direction,1001,Whi,
,,,,,ahead_schema_18_WHI.jpg,ahead,18,schema,,,,,,,,,,,,,,,,,0,317,317,317,,,,,,,,,,,,,,,f,0.14076162898,1,2018_Aug_07_1034,32.2861142025,Arrows_VVA_Direction,1001,Whi,
,,,,,ahead_schema_9_WHI.jpg,ahead,9,schema,,,,,,,,,,,,,,,,,0,318,318,318,,,,,,,,,,,,,,,a,0.0609150517266,,2018_Aug_07_1034,32.2861142025,Arrows_VVA_Direction,1001,Whi,
,,,,,right_schema_7_WHI.jpg,right,7,schema,,,,,,,,,,,,,,,,,0,319,319,319,,,,,,,,,,,,,,,f,1.02846605168,1,2018_Aug_07_1034,32.2861142025,Arrows_VVA_Direction,1001,Whi,
,,,,,right_word_12_WHI.jpg,right,12,word,,,,,,,,,,,,,,,,,0,320,320,320,,,,,,,,,,,,,,,f,0.0625263764523,,2018_Aug_07_1034,32.2861142025,Arrows_VVA_Direction,1001,Whi,
,,,,,left_word_13_WHI.jpg,left,13,word,,,,,,,,,,,,,,,,,0,321,321,321,,,,,,,,,,,,,,,a,0.128962627146,0,2018_Aug_07_1034,32.2861142025,Arrows_VVA_Direction,1001,Whi,
,,,,,right_word_3_WHI.jpg,right,3,word,,,,,,,,,,,,,,,,,0,322,322,322,,,,,,,,,,,,,,,a,0.218719774857,,2018_Aug_07_1034,32.2861142025,Arrows_VVA_Direction,1001,Whi,
,,,,,left_word_18_WHI.jpg,left,18,word,,,,,,,,,,,,,,,,,0,323,323,323,,,,,,,,,,,,,,,f,0.0539726028219,1,2018_Aug_07_1034,32.2861142025,Arrows_VVA_Direction,1001,Whi,
,,,,,left_word_15_WHI.jpg,left,15,word,,,,,,,,,,,,,,,,,0,324,324,324,,,,,,,,,,,,,,,a,0.0596855187323,,2018_Aug_07_1034,32.2861142025,Arrows_VVA_Direction,1001,Whi,
,,,,,left_word_3_WHI.jpg,left,3,word,,,,,,,,,,,,,,,,,0,325,325,325,,,,,,,,,,,,,,,f,0.00235027610324,0,2018_Aug_07_1034,32.2861142025,Arrows_VVA_Direction,1001,Whi,
,,,,,ahead_word_1_WHI.jpg,ahead,1,word,,,,,,,,,,,,,,,,,0,326,326,326,,,,,,,,,,,,,,,a,0.0718761649914,,2018_Aug_07_1034,32.2861142025,Arrows_VVA_Direction,1001,Whi,
,,,,,right_word_7_WHI.jpg,right,7,word,,,,,,,,,,,,,,,,,0,327,327,327,,,,,,,,,,,,,,,f,0.110912095988,1,2018_Aug_07_1034,32.2861142025,Arrows_VVA_Direction,1001,Whi,
,,,,,ahead_word_16_WHI.jpg,ahead,16,word,,,,,,,,,,,,,,,,,0,328,328,328,,,,,,,,,,,,,,,a,0.0630181897432,,2018_Aug_07_1034,32.2861142025,Arrows_VVA_Direction,1001,Whi,
,,,,,left_word_19_WHI.jpg,left,19,word,,,,,,,,,,,,,,,,,0,329,329,329,,,,,,,,,,,,,,,f,0.113092823885,1,2018_Aug_07_1034,32.2861142025,Arrows_VVA_Direction,1001,Whi,
,,,,,ahead_word_5_WHI.jpg,ahead,5,word,,,,,,,,,,,,,,,,,0,330,330,330,,,,,,,,,,,,,,,a,0.0414843235631,,2018_Aug_07_1034,32.2861142025,Arrows_VVA_Direction,1001,Whi,
,,,,,right_word_5_WHI.jpg,right,5,word,,,,,,,,,,,,,,,,,0,331,331,331,,,,,,,,,,,,,,,f,0.0755631220527,1,2018_Aug_07_1034,32.2861142025,Arrows_VVA_Direction,1001,Whi,
,,,,,left_word_20_WHI.jpg,left,20,word,,,,,,,,,,,,,,,,,0,332,332,332,,,,,,,,,,,,,,,a,0.063019010704,,2018_Aug_07_1034,32.2861142025,Arrows_VVA_Direction,1001,Whi,
,,,,,ahead_word_18_WHI.jpg,ahead,18,word,,,,,,,,,,,,,,,,,0,333,333,333,,,,,,,,,,,,,,,f,0.0318939653225,1,2018_Aug_07_1034,32.2861142025,Arrows_VVA_Direction,1001,Whi,
,,,,,right_word_15_WHI.jpg,right,15,word,,,,,,,,,,,,,,,,,0,334,334,334,,,,,,,,,,,,,,,a,0.0824538443703,,2018_Aug_07_1034,32.2861142025,Arrows_VVA_Direction,1001,Whi,
,,,,,ahead_word_10_WHI.jpg,ahead,10,word,,,,,,,,,,,,,,,,,0,335,335,335,,,,,,,,,,,,,,,f,0.072019028943,1,2018_Aug_07_1034,32.2861142025,Arrows_VVA_Direction,1001,Whi,
,,,,,ahead_word_6_WHI.jpg,ahead,6,word,,,,,,,,,,,,,,,,,0,336,336,336,,,,,,,,,,,,,,,a,0.0634352867492,,2018_Aug_07_1034,32.2861142025,Arrows_VVA_Direction,1001,Whi,
,,,,,right_word_17_WHI.jpg,right,17,word,,,,,,,,,,,,,,,,,0,337,337,337,,,,,,,,,,,,,,,f,0.0637940887827,1,2018_Aug_07_1034,32.2861142025,Arrows_VVA_Direction,1001,Whi,
,,,,,right_word_13_WHI.jpg,right,13,word,,,,,,,,,,,,,,,,,0,338,338,338,,,,,,,,,,,,,,,a,0.0614750126842,,2018_Aug_07_1034,32.2861142025,Arrows_VVA_Direction,1001,Whi,
,,,,,left_word_10_WHI.jpg,left,10,word,,,,,,,,,,,,,,,,,0,339,339,339,,,,,,,,,,,,,,,f,0.0451569121797,1,2018_Aug_07_1034,32.2861142025,Arrows_VVA_Direction,1001,Whi,
,,,,,left_image_15_WHI.jpg,left,15,image,,,,,,,,,,,,,,,,,0,340,340,340,,,,,,,,,,,,,,,f,0.505049501546,,2018_Aug_07_1034,32.2861142025,Arrows_VVA_Direction,1001,Whi,
,,,,,right_image_7_WHI.jpg,right,7,image,,,,,,,,,,,,,,,,,0,341,341,341,,,,,,,,,,,,,,,a,0.0958329706918,0,2018_Aug_07_1034,32.2861142025,Arrows_VVA_Direction,1001,Whi,
,,,,,ahead_image_19_WHI.jpg,ahead,19,image,,,,,,,,,,,,,,,,,0,342,342,342,,,,,,,,,,,,,,,f,0.0321550616063,,2018_Aug_07_1034,32.2861142025,Arrows_VVA_Direction,1001,Whi,
,,,,,ahead_image_1_WHI.jpg,ahead,1,image,,,,,,,,,,,,,,,,,0,343,343,343,,,,,,,,,,,,,,,a,0.00218154909089,1,2018_Aug_07_1034,32.2861142025,Arrows_VVA_Direction,1001,Whi,
,,,,,right_image_10_WHI.jpg,right,10,image,,,,,,,,,,,,,,,,,0,344,344,344,,,,,,,,,,,,,,,f,0.0623978809454,,2018_Aug_07_1034,32.2861142025,Arrows_VVA_Direction,1001,Whi,
,,,,,left_image_12_WHI.jpg,left,12,image,,,,,,,,,,,,,,,,,0,345,345,345,,,,,,,,,,,,,,,a,0.0466249624733,0,2018_Aug_07_1034,32.2861142025,Arrows_VVA_Direction,1001,Whi,
,,,,,left_image_6_WHI.jpg,left,6,image,,,,,,,,,,,,,,,,,0,346,346,346,,,,,,,,,,,,,,,f,0.0944273208734,,2018_Aug_07_1034,32.2861142025,Arrows_VVA_Direction,1001,Whi,
,,,,,ahead_image_17_WHI.jpg,ahead,17,image,,,,,,,,,,,,,,,,,0,347,347,347,,,,,,,,,,,,,,,a,0.0366729286034,0,2018_Aug_07_1034,32.2861142025,Arrows_VVA_Direction,1001,Whi,
,,,,,ahead_image_8_WHI.jpg,ahead,8,image,,,,,,,,,,,,,,,,,0,348,348,348,,,,,,,,,,,,,,,f,0.073108982062,,2018_Aug_07_1034,32.2861142025,Arrows_VVA_Direction,1001,Whi,
,,,,,ahead_image_7_WHI.jpg,ahead,7,image,,,,,,,,,,,,,,,,,0,349,349,349,,,,,,,,,,,,,,,a,0.0224403131288,1,2018_Aug_07_1034,32.2861142025,Arrows_VVA_Direction,1001,Whi,
,,,,,right_image_6_WHI.jpg,right,6,image,,,,,,,,,,,,,,,,,0,350,350,350,,,,,,,,,,,,,,,f,0.0947319329716,,2018_Aug_07_1034,32.2861142025,Arrows_VVA_Direction,1001,Whi,
,,,,,right_image_1_WHI.jpg,right,1,image,,,,,,,,,,,,,,,,,0,351,351,351,,,,,,,,,,,,,,,a,0.032148493221,1,2018_Aug_07_1034,32.2861142025,Arrows_VVA_Direction,1001,Whi,
,,,,,ahead_image_6_WHI.jpg,ahead,6,image,,,,,,,,,,,,,,,,,0,352,352,352,,,,,,,,,,,,,,,f,0.0641569960862,,2018_Aug_07_1034,32.2861142025,Arrows_VVA_Direction,1001,Whi,
,,,,,left_image_17_WHI.jpg,left,17,image,,,,,,,,,,,,,,,,,0,353,353,353,,,,,,,,,,,,,,,a,0.0253226344939,0,2018_Aug_07_1034,32.2861142025,Arrows_VVA_Direction,1001,Whi,
,,,,,right_image_15_WHI.jpg,right,15,image,,,,,,,,,,,,,,,,,0,354,354,354,,,,,,,,,,,,,,,f,0.105128569296,,2018_Aug_07_1034,32.2861142025,Arrows_VVA_Direction,1001,Whi,
,,,,,left_image_20_WHI.jpg,left,20,image,,,,,,,,,,,,,,,,,0,355,355,355,,,,,,,,,,,,,,,f,0.0910129547119,1,2018_Aug_07_1034,32.2861142025,Arrows_VVA_Direction,1001,Whi,
,,,,,left_image_8_WHI.jpg,left,8,image,,,,,,,,,,,,,,,,,0,356,356,356,,,,,,,,,,,,,,,a,0.0727189800236,,2018_Aug_07_1034,32.2861142025,Arrows_VVA_Direction,1001,Whi,
,,,,,right_image_16_WHI.jpg,right,16,image,,,,,,,,,,,,,,,,,0,357,357,357,,,,,,,,,,,,,,,f,0.0640198793262,1,2018_Aug_07_1034,32.2861142025,Arrows_VVA_Direction,1001,Whi,
,,,,,ahead_image_20_WHI.jpg,ahead,20,image,,,,,,,,,,,,,,,,,0,358,358,358,,,,,,,,,,,,,,,a,0.00165443029255,,2018_Aug_07_1034,32.2861142025,Arrows_VVA_Direction,1001,Whi,
,,,,,left_image_16_WHI.jpg,left,16,image,,,,,,,,,,,,,,,,,0,359,359,359,,,,,,,,,,,,,,,a,0.116635685321,0,2018_Aug_07_1034,32.2861142025,Arrows_VVA_Direction,1001,Whi,
