Stimulus_Practice,Direction,Number,Background,Format,Stimulus,direction,number,format,repeat_spatial_practice.thisRepN,repeat_spatial_practice.thisTrialN,repeat_spatial_practice.thisN,repeat_spatial_practice.thisIndex,trials.thisRepN,trials.thisTrialN,trials.thisN,trials.thisIndex,trials_3.thisRepN,trials_3.thisTrialN,trials_3.thisN,trials_3.thisIndex,trials_4.thisRepN,trials_4.thisTrialN,trials_4.thisN,trials_4.thisIndex,trials_2.thisRepN,trials_2.thisTrialN,trials_2.thisN,trials_2.thisIndex,key_resp_7.keys,key_resp_7.rt,key_resp_6.keys,key_resp_6.rt,key_resp_11.keys,key_resp_11.rt,key_resp_2.keys,key_resp_2.rt,key_resp_12.keys,key_resp_12.rt,key_resp_14.keys,key_resp_14.rt,key_resp_13.keys,key_resp_13.rt,direction_response.keys,direction_response.rt,date,frameRate,expName,participant,Scr or Whi,
,,,,,,,,,,,,,,,,,,,,,,,,,,,,,d,0.754750226159,,,,,,,,,,,,,,,2018_Aug_07_0904,None,Arrows_VVA_Direction,1001,Whi,
right_image_1_WHI.jpg,right,1,_WHI,image,,,,,0,0,0,0,0,0,0,5,,,,,,,,,,,,,,,s,0.790087294765,f,2.22902773693,,,,,,,,,,,2018_Aug_07_0904,None,Arrows_VVA_Direction,1001,Whi,
right_image_3_WHI.jpg,right,3,_WHI,image,,,,,0,0,0,0,0,1,1,4,,,,,,,,,,,,,,,,,a,0.633460788755,,,,,,,,,,,2018_Aug_07_0904,None,Arrows_VVA_Direction,1001,Whi,
left_image_2_WHI.jpg,left,2,_WHI,image,,,,,0,0,0,0,0,2,2,8,,,,,,,,,,,,,,,,,f,0.44569240557,,,,,,,,,,,2018_Aug_07_0904,None,Arrows_VVA_Direction,1001,Whi,
left_image_1_WHI.jpg,left,1,_WHI,image,,,,,0,0,0,0,0,3,3,3,,,,,,,,,,,,,,,,,a,0.35041652224,,,,,,,,,,,2018_Aug_07_0904,None,Arrows_VVA_Direction,1001,Whi,
left_image_3_WHI.jpg,left,3,_WHI,image,,,,,0,0,0,0,0,4,4,2,,,,,,,,,,,,,,,,,f,0.247033931082,,,,,,,,,,,2018_Aug_07_0904,None,Arrows_VVA_Direction,1001,Whi,
right_image_2_WHI.jpg,right,2,_WHI,image,,,,,0,0,0,0,0,5,5,7,,,,,,,,,,,,,,,,,a,0.241620701039,,,,,,,,,,,2018_Aug_07_0904,None,Arrows_VVA_Direction,1001,Whi,
ahead_image_3_WHI.jpg,ahead,3,_WHI,image,,,,,0,0,0,0,0,6,6,6,,,,,,,,,,,,,,,,,f,0.234250481473,,,,,,,,,,,2018_Aug_07_0904,None,Arrows_VVA_Direction,1001,Whi,
ahead_image_1_WHI.jpg,ahead,1,_WHI,image,,,,,0,0,0,0,0,7,7,0,,,,,,,,,,,,,,,,,a,0.288675487041,,,,,,,,,,,2018_Aug_07_0904,None,Arrows_VVA_Direction,1001,Whi,
ahead_image_2_WHI.jpg,ahead,2,_WHI,image,,,,,0,0,0,0,0,8,8,1,,,,,,,,,,,,,,,,,f,0.299605810316,,,,,,,,,,,2018_Aug_07_0904,None,Arrows_VVA_Direction,1001,Whi,
left_schema_2_WHI.jpg,left,2,_WHI,schema,,,,,0,0,0,0,,,,,0,0,0,8,,,,,,,,,,,,,,,d,0.76725123194,f,0.550225708634,,,,,,,2018_Aug_07_0904,None,Arrows_VVA_Direction,1001,Whi,
left_schema_1_WHI.jpg,left,1,_WHI,schema,,,,,0,0,0,0,,,,,0,1,1,6,,,,,,,,,,,,,,,,,a,0.667192690773,,,,,,,2018_Aug_07_0904,None,Arrows_VVA_Direction,1001,Whi,
ahead_schema_1_WHI.jpg,ahead,1,_WHI,schema,,,,,0,0,0,0,,,,,0,2,2,4,,,,,,,,,,,,,,,,,f,0.444322882453,,,,,,,2018_Aug_07_0904,None,Arrows_VVA_Direction,1001,Whi,
right_schema_1_WHI.jpg,right,1,_WHI,schema,,,,,0,0,0,0,,,,,0,3,3,1,,,,,,,,,,,,,,,,,a,0.288984615123,,,,,,,2018_Aug_07_0904,None,Arrows_VVA_Direction,1001,Whi,
right_schema_2_WHI.jpg,right,2,_WHI,schema,,,,,0,0,0,0,,,,,0,4,4,7,,,,,,,,,,,,,,,,,f,0.296294897562,,,,,,,2018_Aug_07_0904,None,Arrows_VVA_Direction,1001,Whi,
left_schema_3_WHI.jpg,left,3,_WHI,schema,,,,,0,0,0,0,,,,,0,5,5,5,,,,,,,,,,,,,,,,,a,0.334994195029,,,,,,,2018_Aug_07_0904,None,Arrows_VVA_Direction,1001,Whi,
ahead_schema_3_WHI.jpg,ahead,3,_WHI,schema,,,,,0,0,0,0,,,,,0,6,6,3,,,,,,,,,,,,,,,,,f,0.310231111245,,,,,,,2018_Aug_07_0904,None,Arrows_VVA_Direction,1001,Whi,
right_schema_3_WHI.jpg,right,3,_WHI,schema,,,,,0,0,0,0,,,,,0,7,7,2,,,,,,,,,,,,,,,,,a,0.412900203839,,,,,,,2018_Aug_07_0904,None,Arrows_VVA_Direction,1001,Whi,
ahead_schema_2_WHI.jpg,ahead,2,_WHI,schema,,,,,0,0,0,0,,,,,0,8,8,0,,,,,,,,,,,,,,,,,f,0.211888168706,,,,,,,2018_Aug_07_0904,None,Arrows_VVA_Direction,1001,Whi,
right_word_2_WHI.jpg,right,2,_WHI,word,,,,,0,0,0,0,,,,,,,,,0,0,0,3,,,,,,,,,,,d,0.588779679267,,,f,0.352529102471,,,,,2018_Aug_07_0904,None,Arrows_VVA_Direction,1001,Whi,
ahead_word_3_WHI.jpg,ahead,3,_WHI,word,,,,,0,0,0,0,,,,,,,,,0,1,1,4,,,,,,,,,,,,,,,a,0.234481609194,,,,,2018_Aug_07_0904,None,Arrows_VVA_Direction,1001,Whi,
left_word_3_WHI.jpg,left,3,_WHI,word,,,,,0,0,0,0,,,,,,,,,0,2,2,2,,,,,,,,,,,,,,,f,0.194165649824,,,,,2018_Aug_07_0904,None,Arrows_VVA_Direction,1001,Whi,
right_word_3_WHI.jpg,right,3,_WHI,word,,,,,0,0,0,0,,,,,,,,,0,3,3,1,,,,,,,,,,,,,,,a,0.0925930789672,,,,,2018_Aug_07_0904,None,Arrows_VVA_Direction,1001,Whi,
right_word_1_WHI.jpg,right,1,_WHI,word,,,,,0,0,0,0,,,,,,,,,0,4,4,6,,,,,,,,,,,,,,,f,0.172061559511,,,,,2018_Aug_07_0904,None,Arrows_VVA_Direction,1001,Whi,
left_word_1_WHI.jpg,left,1,_WHI,word,,,,,0,0,0,0,,,,,,,,,0,5,5,0,,,,,,,,,,,,,,,a,0.138112077722,,,,,2018_Aug_07_0904,None,Arrows_VVA_Direction,1001,Whi,
left_word_2_WHI.jpg,left,2,_WHI,word,,,,,0,0,0,0,,,,,,,,,0,6,6,5,,,,,,,,,,,,,,,f,0.175353998784,,,,,2018_Aug_07_0904,None,Arrows_VVA_Direction,1001,Whi,
ahead_word_2_WHI.jpg,ahead,2,_WHI,word,,,,,0,0,0,0,,,,,,,,,0,7,7,7,,,,,,,,,,,,,,,a,0.374317906564,,,,,2018_Aug_07_0904,None,Arrows_VVA_Direction,1001,Whi,
ahead_word_1_WHI.jpg,ahead,1,_WHI,word,,,,,0,0,0,0,,,,,,,,,0,8,8,8,,,,,,,,,,,,,,,f,0.54102822626,,,,,2018_Aug_07_0904,None,Arrows_VVA_Direction,1001,Whi,
left_word_3_WHI.jpg,left,3,_WHI,word,,,,,1,0,1,0,0,0,0,2,,,,,,,,,,,,,,,d,0.570030428469,f,0.469618421979,,,,,,,,,,,2018_Aug_07_0904,None,Arrows_VVA_Direction,1001,Whi,
ahead_word_1_WHI.jpg,ahead,1,_WHI,word,,,,,1,0,1,0,0,1,1,8,,,,,,,,,,,,,,,,,a,0.195292140357,,,,,,,,,,,2018_Aug_07_0904,None,Arrows_VVA_Direction,1001,Whi,
left_word_1_WHI.jpg,left,1,_WHI,word,,,,,1,0,1,0,0,2,2,0,,,,,,,,,,,,,,,,,f,0.157576469239,,,,,,,,,,,2018_Aug_07_0904,None,Arrows_VVA_Direction,1001,Whi,
ahead_word_2_WHI.jpg,ahead,2,_WHI,word,,,,,1,0,1,0,0,3,3,7,,,,,,,,,,,,,,,,,a,0.0523969940841,,,,,,,,,,,2018_Aug_07_0904,None,Arrows_VVA_Direction,1001,Whi,
right_word_3_WHI.jpg,right,3,_WHI,word,,,,,1,0,1,0,0,4,4,1,,,,,,,,,,,,,,,,,f,0.0813881121576,,,,,,,,,,,2018_Aug_07_0904,None,Arrows_VVA_Direction,1001,Whi,
ahead_word_3_WHI.jpg,ahead,3,_WHI,word,,,,,1,0,1,0,0,5,5,4,,,,,,,,,,,,,,,,,a,0.0589925465174,,,,,,,,,,,2018_Aug_07_0904,None,Arrows_VVA_Direction,1001,Whi,
left_word_2_WHI.jpg,left,2,_WHI,word,,,,,1,0,1,0,0,6,6,5,,,,,,,,,,,,,,,,,f,0.0655589511152,,,,,,,,,,,2018_Aug_07_0904,None,Arrows_VVA_Direction,1001,Whi,
right_word_2_WHI.jpg,right,2,_WHI,word,,,,,1,0,1,0,0,7,7,3,,,,,,,,,,,,,,,,,a,0.0667359365616,,,,,,,,,,,2018_Aug_07_0904,None,Arrows_VVA_Direction,1001,Whi,
right_word_1_WHI.jpg,right,1,_WHI,word,,,,,1,0,1,0,0,8,8,6,,,,,,,,,,,,,,,,,f,0.0444503924809,,,,,,,,,,,2018_Aug_07_0904,None,Arrows_VVA_Direction,1001,Whi,
ahead_image_2_WHI.jpg,ahead,2,_WHI,image,,,,,1,0,1,0,,,,,0,0,0,1,,,,,,,,,,,,,,,d,0.42028109706,f,0.239418215351,,,,,,,2018_Aug_07_0904,None,Arrows_VVA_Direction,1001,Whi,
right_image_3_WHI.jpg,right,3,_WHI,image,,,,,1,0,1,0,,,,,0,1,1,4,,,,,,,,,,,,,,,,,a,0.0599420990329,,,,,,,2018_Aug_07_0904,None,Arrows_VVA_Direction,1001,Whi,
ahead_image_1_WHI.jpg,ahead,1,_WHI,image,,,,,1,0,1,0,,,,,0,2,2,0,,,,,,,,,,,,,,,,,f,0.0206955668982,,,,,,,2018_Aug_07_0904,None,Arrows_VVA_Direction,1001,Whi,
right_image_1_WHI.jpg,right,1,_WHI,image,,,,,1,0,1,0,,,,,0,3,3,5,,,,,,,,,,,,,,,,,a,0.0715920790099,,,,,,,2018_Aug_07_0904,None,Arrows_VVA_Direction,1001,Whi,
left_image_3_WHI.jpg,left,3,_WHI,image,,,,,1,0,1,0,,,,,0,4,4,2,,,,,,,,,,,,,,,,,f,0.03596887202,,,,,,,2018_Aug_07_0904,None,Arrows_VVA_Direction,1001,Whi,
ahead_image_3_WHI.jpg,ahead,3,_WHI,image,,,,,1,0,1,0,,,,,0,5,5,6,,,,,,,,,,,,,,,,,a,0.0633925918955,,,,,,,2018_Aug_07_0904,None,Arrows_VVA_Direction,1001,Whi,
right_image_2_WHI.jpg,right,2,_WHI,image,,,,,1,0,1,0,,,,,0,6,6,7,,,,,,,,,,,,,,,,,f,0.0520496871322,,,,,,,2018_Aug_07_0904,None,Arrows_VVA_Direction,1001,Whi,
left_image_1_WHI.jpg,left,1,_WHI,image,,,,,1,0,1,0,,,,,0,7,7,3,,,,,,,,,,,,,,,,,a,0.020793272648,,,,,,,2018_Aug_07_0904,None,Arrows_VVA_Direction,1001,Whi,
left_image_2_WHI.jpg,left,2,_WHI,image,,,,,1,0,1,0,,,,,0,8,8,8,,,,,,,,,,,,,,,,,f,0.0599815098103,,,,,,,2018_Aug_07_0904,None,Arrows_VVA_Direction,1001,Whi,
right_schema_1_WHI.jpg,right,1,_WHI,schema,,,,,1,0,1,0,,,,,,,,,0,0,0,1,,,,,,,,,,,d,0.366673864657,,,f,0.196394409519,,,,,2018_Aug_07_0904,None,Arrows_VVA_Direction,1001,Whi,
left_schema_3_WHI.jpg,left,3,_WHI,schema,,,,,1,0,1,0,,,,,,,,,0,1,1,5,,,,,,,,,,,,,,,a,0.0631372430362,,,,,2018_Aug_07_0904,None,Arrows_VVA_Direction,1001,Whi,
right_schema_2_WHI.jpg,right,2,_WHI,schema,,,,,1,0,1,0,,,,,,,,,0,2,2,7,,,,,,,,,,,,,,,f,0.158069924451,,,,,2018_Aug_07_0904,None,Arrows_VVA_Direction,1001,Whi,
ahead_schema_1_WHI.jpg,ahead,1,_WHI,schema,,,,,1,0,1,0,,,,,,,,,0,3,3,4,,,,,,,,,,,,,,,a,0.000924510182813,,,,,2018_Aug_07_0904,None,Arrows_VVA_Direction,1001,Whi,
left_schema_2_WHI.jpg,left,2,_WHI,schema,,,,,1,0,1,0,,,,,,,,,0,4,4,8,,,,,,,,,,,,,,,f,0.000337454490364,,,,,2018_Aug_07_0904,None,Arrows_VVA_Direction,1001,Whi,
ahead_schema_2_WHI.jpg,ahead,2,_WHI,schema,,,,,1,0,1,0,,,,,,,,,0,5,5,0,,,,,,,,,,,,,,,a,0.066939558601,,,,,2018_Aug_07_0904,None,Arrows_VVA_Direction,1001,Whi,
left_schema_1_WHI.jpg,left,1,_WHI,schema,,,,,1,0,1,0,,,,,,,,,0,6,6,6,,,,,,,,,,,,,,,f,0.147742256988,,,,,2018_Aug_07_0904,None,Arrows_VVA_Direction,1001,Whi,
right_schema_3_WHI.jpg,right,3,_WHI,schema,,,,,1,0,1,0,,,,,,,,,0,7,7,2,,,,,,,,,,,,,,,a,0.0937778644729,,,,,2018_Aug_07_0904,None,Arrows_VVA_Direction,1001,Whi,
ahead_schema_3_WHI.jpg,ahead,3,_WHI,schema,,,,,1,0,1,0,,,,,,,,,0,8,8,3,,,,,,,,,,,,,,,f,0.170347602805,,,,,2018_Aug_07_0904,None,Arrows_VVA_Direction,1001,Whi,
,,,,,,,,,,,,,,,,,,,,,,,,,,,,,,,,,,,,,,,,,d,0.800579173723,,,2018_Aug_07_0904,None,Arrows_VVA_Direction,1001,Whi,
,,,,,right_word_4_WHI.jpg,right,4,word,,,,,,,,,,,,,,,,,0,0,0,0,,,,,,,,,,,,,,,f,0.328249620972,2018_Aug_07_0904,None,Arrows_VVA_Direction,1001,Whi,
,,,,,right_word_16_WHI.jpg,right,16,word,,,,,,,,,,,,,,,,,0,1,1,1,,,,,,,,,,,,,,,f,0.263409505598,2018_Aug_07_0904,None,Arrows_VVA_Direction,1001,Whi,
,,,,,ahead_word_4_WHI.jpg,ahead,4,word,,,,,,,,,,,,,,,,,0,2,2,2,,,,,,,,,,,,,,,f,0.293058290146,2018_Aug_07_0904,None,Arrows_VVA_Direction,1001,Whi,
,,,,,left_word_4_WHI.jpg,left,4,word,,,,,,,,,,,,,,,,,0,3,3,3,,,,,,,,,,,,,,,f,0.95914665889,2018_Aug_07_0904,None,Arrows_VVA_Direction,1001,Whi,
,,,,,ahead_word_10_WHI.jpg,ahead,10,word,,,,,,,,,,,,,,,,,0,4,4,4,,,,,,,,,,,,,,,f,0.459132290212,2018_Aug_07_0904,None,Arrows_VVA_Direction,1001,Whi,
,,,,,left_word_9_WHI.jpg,left,9,word,,,,,,,,,,,,,,,,,0,5,5,5,,,,,,,,,,,,,,,f,0.31624740758,2018_Aug_07_0904,None,Arrows_VVA_Direction,1001,Whi,
,,,,,left_word_6_WHI.jpg,left,6,word,,,,,,,,,,,,,,,,,0,6,6,6,,,,,,,,,,,,,,,f,0.236452556914,2018_Aug_07_0904,None,Arrows_VVA_Direction,1001,Whi,
,,,,,ahead_word_3_WHI.jpg,ahead,3,word,,,,,,,,,,,,,,,,,0,7,7,7,,,,,,,,,,,,,,,f,0.546758794691,2018_Aug_07_0904,None,Arrows_VVA_Direction,1001,Whi,
,,,,,right_word_5_WHI.jpg,right,5,word,,,,,,,,,,,,,,,,,0,8,8,8,,,,,,,,,,,,,,,f,0.546682846965,2018_Aug_07_0904,None,Arrows_VVA_Direction,1001,Whi,
,,,,,right_word_11_WHI.jpg,right,11,word,,,,,,,,,,,,,,,,,0,9,9,9,,,,,,,,,,,,,,,f,0.581870072521,2018_Aug_07_0904,None,Arrows_VVA_Direction,1001,Whi,
,,,,,left_word_10_WHI.jpg,left,10,word,,,,,,,,,,,,,,,,,0,10,10,10,,,,,,,,,,,,,,,f,0.343666200992,2018_Aug_07_0904,None,Arrows_VVA_Direction,1001,Whi,
,,,,,left_word_8_WHI.jpg,left,8,word,,,,,,,,,,,,,,,,,0,11,11,11,,,,,,,,,,,,,,,f,0.297625010135,2018_Aug_07_0904,None,Arrows_VVA_Direction,1001,Whi,
,,,,,ahead_word_18_WHI.jpg,ahead,18,word,,,,,,,,,,,,,,,,,0,12,12,12,,,,,,,,,,,,,,,f,0.337159322808,2018_Aug_07_0904,None,Arrows_VVA_Direction,1001,Whi,
,,,,,left_word_21_WHI.jpg,left,21,word,,,,,,,,,,,,,,,,,0,13,13,13,,,,,,,,,,,,,,,f,0.28321340424,2018_Aug_07_0904,None,Arrows_VVA_Direction,1001,Whi,
,,,,,ahead_word_12_WHI.jpg,ahead,12,word,,,,,,,,,,,,,,,,,0,14,14,14,,,,,,,,,,,,,,,f,0.413230679464,2018_Aug_07_0904,None,Arrows_VVA_Direction,1001,Whi,
,,,,,right_word_10_WHI.jpg,right,10,word,,,,,,,,,,,,,,,,,0,15,15,15,,,,,,,,,,,,,,,f,0.481320128543,2018_Aug_07_0904,None,Arrows_VVA_Direction,1001,Whi,
,,,,,left_word_20_WHI.jpg,left,20,word,,,,,,,,,,,,,,,,,0,16,16,16,,,,,,,,,,,,,,,f,0.559040167602,2018_Aug_07_0904,None,Arrows_VVA_Direction,1001,Whi,
,,,,,ahead_word_14_WHI.jpg,ahead,14,word,,,,,,,,,,,,,,,,,0,17,17,17,,,,,,,,,,,,,,,f,0.300019212766,2018_Aug_07_0904,None,Arrows_VVA_Direction,1001,Whi,
,,,,,right_word_3_WHI.jpg,right,3,word,,,,,,,,,,,,,,,,,0,18,18,18,,,,,,,,,,,,,,,f,0.258000381058,2018_Aug_07_0904,None,Arrows_VVA_Direction,1001,Whi,
,,,,,right_word_14_WHI.jpg,right,14,word,,,,,,,,,,,,,,,,,0,19,19,19,,,,,,,,,,,,,,,f,0.288995699491,2018_Aug_07_0904,None,Arrows_VVA_Direction,1001,Whi,
,,,,,ahead_word_8_WHI.jpg,ahead,8,word,,,,,,,,,,,,,,,,,0,20,20,20,,,,,,,,,,,,,,,f,0.232703199377,2018_Aug_07_0904,None,Arrows_VVA_Direction,1001,Whi,
,,,,,ahead_schema_7_WHI.jpg,ahead,7,schema,,,,,,,,,,,,,,,,,0,21,21,21,,,,,,,,,,,,,,,f,0.486550673144,2018_Aug_07_0904,None,Arrows_VVA_Direction,1001,Whi,
,,,,,ahead_schema_8_WHI.jpg,ahead,8,schema,,,,,,,,,,,,,,,,,0,22,22,22,,,,,,,,,,,,,,,f,0.171930601122,2018_Aug_07_0904,None,Arrows_VVA_Direction,1001,Whi,
,,,,,ahead_schema_12_WHI.jpg,ahead,12,schema,,,,,,,,,,,,,,,,,0,23,23,23,,,,,,,,,,,,,,,f,0.165578492219,2018_Aug_07_0904,None,Arrows_VVA_Direction,1001,Whi,
,,,,,left_schema_20_WHI.jpg,left,20,schema,,,,,,,,,,,,,,,,,0,24,24,24,,,,,,,,,,,,,,,f,0.186424722895,2018_Aug_07_0904,None,Arrows_VVA_Direction,1001,Whi,
,,,,,right_schema_17_WHI.jpg,right,17,schema,,,,,,,,,,,,,,,,,0,25,25,25,,,,,,,,,,,,,,,f,0.168285928201,2018_Aug_07_0904,None,Arrows_VVA_Direction,1001,Whi,
,,,,,ahead_schema_11_WHI.jpg,ahead,11,schema,,,,,,,,,,,,,,,,,0,26,26,26,,,,,,,,,,,,,,,f,0.151004727697,2018_Aug_07_0904,None,Arrows_VVA_Direction,1001,Whi,
,,,,,left_schema_4_WHI.jpg,left,4,schema,,,,,,,,,,,,,,,,,0,27,27,27,,,,,,,,,,,,,,,f,0.136419057846,2018_Aug_07_0904,None,Arrows_VVA_Direction,1001,Whi,
,,,,,right_schema_19_WHI.jpg,right,19,schema,,,,,,,,,,,,,,,,,0,28,28,28,,,,,,,,,,,,,,,f,0.178635353688,2018_Aug_07_0904,None,Arrows_VVA_Direction,1001,Whi,
,,,,,ahead_schema_17_WHI.jpg,ahead,17,schema,,,,,,,,,,,,,,,,,0,29,29,29,,,,,,,,,,,,,,,f,0.193833532277,2018_Aug_07_0904,None,Arrows_VVA_Direction,1001,Whi,
,,,,,ahead_schema_2_WHI.jpg,ahead,2,schema,,,,,,,,,,,,,,,,,0,30,30,30,,,,,,,,,,,,,,,f,0.16684702551,2018_Aug_07_0904,None,Arrows_VVA_Direction,1001,Whi,
,,,,,left_schema_5_WHI.jpg,left,5,schema,,,,,,,,,,,,,,,,,0,31,31,31,,,,,,,,,,,,,,,f,0.150171354646,2018_Aug_07_0904,None,Arrows_VVA_Direction,1001,Whi,
,,,,,left_schema_17_WHI.jpg,left,17,schema,,,,,,,,,,,,,,,,,0,32,32,32,,,,,,,,,,,,,,,f,0.135629611323,2018_Aug_07_0904,None,Arrows_VVA_Direction,1001,Whi,
,,,,,right_schema_13_WHI.jpg,right,13,schema,,,,,,,,,,,,,,,,,0,33,33,33,,,,,,,,,,,,,,,f,0.176707922248,2018_Aug_07_0904,None,Arrows_VVA_Direction,1001,Whi,
,,,,,ahead_schema_13_WHI.jpg,ahead,13,schema,,,,,,,,,,,,,,,,,0,34,34,34,,,,,,,,,,,,,,,f,0.151738342131,2018_Aug_07_0904,None,Arrows_VVA_Direction,1001,Whi,
,,,,,right_schema_1_WHI.jpg,right,1,schema,,,,,,,,,,,,,,,,,0,35,35,35,,,,,,,,,,,,,,,f,0.175412293756,2018_Aug_07_0904,None,Arrows_VVA_Direction,1001,Whi,
,,,,,right_schema_2_WHI.jpg,right,2,schema,,,,,,,,,,,,,,,,,0,36,36,36,,,,,,,,,,,,,,,f,0.17904300848,2018_Aug_07_0904,None,Arrows_VVA_Direction,1001,Whi,
,,,,,left_schema_2_WHI.jpg,left,2,schema,,,,,,,,,,,,,,,,,0,37,37,37,,,,,,,,,,,,,,,f,0.0803987383842,2018_Aug_07_0904,None,Arrows_VVA_Direction,1001,Whi,
,,,,,right_schema_3_WHI.jpg,right,3,schema,,,,,,,,,,,,,,,,,0,38,38,38,,,,,,,,,,,,,,,f,0.242442168761,2018_Aug_07_0904,None,Arrows_VVA_Direction,1001,Whi,
,,,,,right_schema_15_WHI.jpg,right,15,schema,,,,,,,,,,,,,,,,,0,39,39,39,,,,,,,,,,,,,,,f,0.588990280405,2018_Aug_07_0904,None,Arrows_VVA_Direction,1001,Whi,
,,,,,left_schema_15_WHI.jpg,left,15,schema,,,,,,,,,,,,,,,,,0,40,40,40,,,,,,,,,,,,,,,f,0.251289059641,2018_Aug_07_0904,None,Arrows_VVA_Direction,1001,Whi,
,,,,,left_schema_9_WHI.jpg,left,9,schema,,,,,,,,,,,,,,,,,0,41,41,41,,,,,,,,,,,,,,,f,0.265899772057,2018_Aug_07_0904,None,Arrows_VVA_Direction,1001,Whi,
,,,,,right_image_10_WHI.jpg,right,10,image,,,,,,,,,,,,,,,,,0,42,42,42,,,,,,,,,,,,,,,f,0.278972233413,2018_Aug_07_0904,None,Arrows_VVA_Direction,1001,Whi,
,,,,,ahead_image_17_WHI.jpg,ahead,17,image,,,,,,,,,,,,,,,,,0,43,43,43,,,,,,,,,,,,,,,f,0.186968262773,2018_Aug_07_0904,None,Arrows_VVA_Direction,1001,Whi,
,,,,,left_image_20_WHI.jpg,left,20,image,,,,,,,,,,,,,,,,,0,44,44,44,,,,,,,,,,,,,,,f,0.347932824399,2018_Aug_07_0904,None,Arrows_VVA_Direction,1001,Whi,
,,,,,left_image_11_WHI.jpg,left,11,image,,,,,,,,,,,,,,,,,0,45,45,45,,,,,,,,,,,,,,,f,0.298921869835,2018_Aug_07_0904,None,Arrows_VVA_Direction,1001,Whi,
,,,,,right_image_2_WHI.jpg,right,2,image,,,,,,,,,,,,,,,,,0,46,46,46,,,,,,,,,,,,,,,f,0.277874890482,2018_Aug_07_0904,None,Arrows_VVA_Direction,1001,Whi,
,,,,,right_image_5_WHI.jpg,right,5,image,,,,,,,,,,,,,,,,,0,47,47,47,,,,,,,,,,,,,,,f,0.327576764859,2018_Aug_07_0904,None,Arrows_VVA_Direction,1001,Whi,
,,,,,right_image_8_WHI.jpg,right,8,image,,,,,,,,,,,,,,,,,0,48,48,48,,,,,,,,,,,,,,,f,0.3796958311,2018_Aug_07_0904,None,Arrows_VVA_Direction,1001,Whi,
,,,,,left_image_1_WHI.jpg,left,1,image,,,,,,,,,,,,,,,,,0,49,49,49,,,,,,,,,,,,,,,f,0.556542511797,2018_Aug_07_0904,None,Arrows_VVA_Direction,1001,Whi,
,,,,,ahead_image_1_WHI.jpg,ahead,1,image,,,,,,,,,,,,,,,,,0,50,50,50,,,,,,,,,,,,,,,f,0.370644086506,2018_Aug_07_0904,None,Arrows_VVA_Direction,1001,Whi,
,,,,,left_image_17_WHI.jpg,left,17,image,,,,,,,,,,,,,,,,,0,51,51,51,,,,,,,,,,,,,,,f,0.445078665623,2018_Aug_07_0904,None,Arrows_VVA_Direction,1001,Whi,
,,,,,ahead_image_13_WHI.jpg,ahead,13,image,,,,,,,,,,,,,,,,,0,52,52,52,,,,,,,,,,,,,,,f,0.328298884444,2018_Aug_07_0904,None,Arrows_VVA_Direction,1001,Whi,
,,,,,ahead_image_8_WHI.jpg,ahead,8,image,,,,,,,,,,,,,,,,,0,53,53,53,,,,,,,,,,,,,,,f,0.393096715445,2018_Aug_07_0904,None,Arrows_VVA_Direction,1001,Whi,
,,,,,ahead_image_10_WHI.jpg,ahead,10,image,,,,,,,,,,,,,,,,,0,54,54,54,,,,,,,,,,,,,,,f,0.310573491966,2018_Aug_07_0904,None,Arrows_VVA_Direction,1001,Whi,
,,,,,left_image_18_WHI.jpg,left,18,image,,,,,,,,,,,,,,,,,0,55,55,55,,,,,,,,,,,,,,,f,0.334590645507,2018_Aug_07_0904,None,Arrows_VVA_Direction,1001,Whi,
,,,,,left_image_9_WHI.jpg,left,9,image,,,,,,,,,,,,,,,,,0,56,56,56,,,,,,,,,,,,,,,f,0.434698450146,2018_Aug_07_0904,None,Arrows_VVA_Direction,1001,Whi,
,,,,,right_image_7_WHI.jpg,right,7,image,,,,,,,,,,,,,,,,,0,57,57,57,,,,,,,,,,,,,,,f,0.438250754029,2018_Aug_07_0904,None,Arrows_VVA_Direction,1001,Whi,
,,,,,ahead_image_2_WHI.jpg,ahead,2,image,,,,,,,,,,,,,,,,,0,58,58,58,,,,,,,,,,,,,,,f,0.424211497884,2018_Aug_07_0904,None,Arrows_VVA_Direction,1001,Whi,
,,,,,right_image_12_WHI.jpg,right,12,image,,,,,,,,,,,,,,,,,0,59,59,59,,,,,,,,,,,,,,,f,0.610517167486,2018_Aug_07_0904,None,Arrows_VVA_Direction,1001,Whi,
,,,,,ahead_image_20_WHI.jpg,ahead,20,image,,,,,,,,,,,,,,,,,0,60,60,60,,,,,,,,,,,,,,,f,0.450030050706,2018_Aug_07_0904,None,Arrows_VVA_Direction,1001,Whi,
,,,,,left_image_7_WHI.jpg,left,7,image,,,,,,,,,,,,,,,,,0,61,61,61,,,,,,,,,,,,,,,f,0.513927592663,2018_Aug_07_0904,None,Arrows_VVA_Direction,1001,Whi,
,,,,,right_image_21_WHI.jpg,right,21,image,,,,,,,,,,,,,,,,,0,62,62,62,,,,,,,,,,,,,,,f,0.442584293894,2018_Aug_07_0904,None,Arrows_VVA_Direction,1001,Whi,
,,,,,ahead_schema_10_WHI.jpg,ahead,10,schema,,,,,,,,,,,,,,,,,0,63,63,63,,,,,,,,,,,,,,,f,0.285938492976,2018_Aug_07_0904,None,Arrows_VVA_Direction,1001,Whi,
,,,,,left_schema_13_WHI.jpg,left,13,schema,,,,,,,,,,,,,,,,,0,64,64,64,,,,,,,,,,,,,,,f,1.68535160134,2018_Aug_07_0904,None,Arrows_VVA_Direction,1001,Whi,
,,,,,ahead_schema_3_WHI.jpg,ahead,3,schema,,,,,,,,,,,,,,,,,0,65,65,65,,,,,,,,,,,,,,,f,0.330099052284,2018_Aug_07_0904,None,Arrows_VVA_Direction,1001,Whi,
,,,,,ahead_schema_1_WHI.jpg,ahead,1,schema,,,,,,,,,,,,,,,,,0,66,66,66,,,,,,,,,,,,,,,f,0.516928146128,2018_Aug_07_0904,None,Arrows_VVA_Direction,1001,Whi,
,,,,,left_schema_7_WHI.jpg,left,7,schema,,,,,,,,,,,,,,,,,0,67,67,67,,,,,,,,,,,,,,,f,0.656288640806,2018_Aug_07_0904,None,Arrows_VVA_Direction,1001,Whi,
,,,,,ahead_schema_14_WHI.jpg,ahead,14,schema,,,,,,,,,,,,,,,,,0,68,68,68,,,,,,,,,,,,,,,f,0.391464043409,2018_Aug_07_0904,None,Arrows_VVA_Direction,1001,Whi,
,,,,,left_schema_6_WHI.jpg,left,6,schema,,,,,,,,,,,,,,,,,0,69,69,69,,,,,,,,,,,,,,,f,0.39016061509,2018_Aug_07_0904,None,Arrows_VVA_Direction,1001,Whi,
,,,,,left_schema_1_WHI.jpg,left,1,schema,,,,,,,,,,,,,,,,,0,70,70,70,,,,,,,,,,,,,,,f,0.351426422596,2018_Aug_07_0904,None,Arrows_VVA_Direction,1001,Whi,
,,,,,left_schema_8_WHI.jpg,left,8,schema,,,,,,,,,,,,,,,,,0,71,71,71,,,,,,,,,,,,,,,f,0.35438715457,2018_Aug_07_0904,None,Arrows_VVA_Direction,1001,Whi,
,,,,,ahead_schema_9_WHI.jpg,ahead,9,schema,,,,,,,,,,,,,,,,,0,72,72,72,,,,,,,,,,,,,,,f,0.274931400781,2018_Aug_07_0904,None,Arrows_VVA_Direction,1001,Whi,
,,,,,right_schema_9_WHI.jpg,right,9,schema,,,,,,,,,,,,,,,,,0,73,73,73,,,,,,,,,,,,,,,f,0.28363583819,2018_Aug_07_0904,None,Arrows_VVA_Direction,1001,Whi,
,,,,,right_schema_21_WHI.jpg,right,21,schema,,,,,,,,,,,,,,,,,0,74,74,74,,,,,,,,,,,,,,,f,0.190084585221,2018_Aug_07_0904,None,Arrows_VVA_Direction,1001,Whi,
,,,,,right_schema_14_WHI.jpg,right,14,schema,,,,,,,,,,,,,,,,,0,75,75,75,,,,,,,,,,,,,,,f,0.127651809249,2018_Aug_07_0904,None,Arrows_VVA_Direction,1001,Whi,
,,,,,left_schema_19_WHI.jpg,left,19,schema,,,,,,,,,,,,,,,,,0,76,76,76,,,,,,,,,,,,,,,f,0.149096180219,2018_Aug_07_0904,None,Arrows_VVA_Direction,1001,Whi,
,,,,,ahead_schema_15_WHI.jpg,ahead,15,schema,,,,,,,,,,,,,,,,,0,77,77,77,,,,,,,,,,,,,,,f,0.135306935757,2018_Aug_07_0904,None,Arrows_VVA_Direction,1001,Whi,
,,,,,left_schema_21_WHI.jpg,left,21,schema,,,,,,,,,,,,,,,,,0,78,78,78,,,,,,,,,,,,,,,f,0.0942019405775,2018_Aug_07_0904,None,Arrows_VVA_Direction,1001,Whi,
,,,,,right_schema_6_WHI.jpg,right,6,schema,,,,,,,,,,,,,,,,,0,79,79,79,,,,,,,,,,,,,,,f,0.099015388405,2018_Aug_07_0904,None,Arrows_VVA_Direction,1001,Whi,
,,,,,ahead_schema_19_WHI.jpg,ahead,19,schema,,,,,,,,,,,,,,,,,0,80,80,80,,,,,,,,,,,,,,,f,0.200541158672,2018_Aug_07_0904,None,Arrows_VVA_Direction,1001,Whi,
,,,,,right_schema_12_WHI.jpg,right,12,schema,,,,,,,,,,,,,,,,,0,81,81,81,,,,,,,,,,,,,,,f,0.00105916382745,2018_Aug_07_0904,None,Arrows_VVA_Direction,1001,Whi,
,,,,,right_schema_7_WHI.jpg,right,7,schema,,,,,,,,,,,,,,,,,0,82,82,82,,,,,,,,,,,,,,,f,0.0602680586744,2018_Aug_07_0904,None,Arrows_VVA_Direction,1001,Whi,
,,,,,right_schema_5_WHI.jpg,right,5,schema,,,,,,,,,,,,,,,,,0,83,83,83,,,,,,,,,,,,,,,f,0.083791346522,2018_Aug_07_0904,None,Arrows_VVA_Direction,1001,Whi,
,,,,,ahead_image_4_WHI.jpg,ahead,4,image,,,,,,,,,,,,,,,,,0,84,84,84,,,,,,,,,,,,,,,f,1.8123445122,2018_Aug_07_0904,None,Arrows_VVA_Direction,1001,Whi,
,,,,,ahead_image_3_WHI.jpg,ahead,3,image,,,,,,,,,,,,,,,,,0,85,85,85,,,,,,,,,,,,,,,f,0.854446681216,2018_Aug_07_0904,None,Arrows_VVA_Direction,1001,Whi,
,,,,,right_image_4_WHI.jpg,right,4,image,,,,,,,,,,,,,,,,,0,86,86,86,,,,,,,,,,,,,,,f,0.457842409611,2018_Aug_07_0904,None,Arrows_VVA_Direction,1001,Whi,
,,,,,ahead_image_5_WHI.jpg,ahead,5,image,,,,,,,,,,,,,,,,,0,87,87,87,,,,,,,,,,,,,,,f,0.414590760367,2018_Aug_07_0904,None,Arrows_VVA_Direction,1001,Whi,
,,,,,right_image_20_WHI.jpg,right,20,image,,,,,,,,,,,,,,,,,0,88,88,88,,,,,,,,,,,,,,,f,0.329502143664,2018_Aug_07_0904,None,Arrows_VVA_Direction,1001,Whi,
,,,,,left_image_3_WHI.jpg,left,3,image,,,,,,,,,,,,,,,,,0,89,89,89,,,,,,,,,,,,,,,f,0.411807376659,2018_Aug_07_0904,None,Arrows_VVA_Direction,1001,Whi,
,,,,,right_image_19_WHI.jpg,right,19,image,,,,,,,,,,,,,,,,,0,90,90,90,,,,,,,,,,,,,,,f,0.367880407954,2018_Aug_07_0904,None,Arrows_VVA_Direction,1001,Whi,
,,,,,right_image_3_WHI.jpg,right,3,image,,,,,,,,,,,,,,,,,0,91,91,91,,,,,,,,,,,,,,,f,0.465811179951,2018_Aug_07_0904,None,Arrows_VVA_Direction,1001,Whi,
,,,,,left_image_14_WHI.jpg,left,14,image,,,,,,,,,,,,,,,,,0,92,92,92,,,,,,,,,,,,,,,f,0.430865345057,2018_Aug_07_0904,None,Arrows_VVA_Direction,1001,Whi,
,,,,,left_image_12_WHI.jpg,left,12,image,,,,,,,,,,,,,,,,,0,93,93,93,,,,,,,,,,,,,,,f,0.51331344177,2018_Aug_07_0904,None,Arrows_VVA_Direction,1001,Whi,
,,,,,left_image_2_WHI.jpg,left,2,image,,,,,,,,,,,,,,,,,0,94,94,94,,,,,,,,,,,,,,,f,0.398859715788,2018_Aug_07_0904,None,Arrows_VVA_Direction,1001,Whi,
,,,,,ahead_image_19_WHI.jpg,ahead,19,image,,,,,,,,,,,,,,,,,0,95,95,95,,,,,,,,,,,,,,,f,0.452867213637,2018_Aug_07_0904,None,Arrows_VVA_Direction,1001,Whi,
,,,,,left_image_21_WHI.jpg,left,21,image,,,,,,,,,,,,,,,,,0,96,96,96,,,,,,,,,,,,,,,f,0.546058843611,2018_Aug_07_0904,None,Arrows_VVA_Direction,1001,Whi,
,,,,,left_image_10_WHI.jpg,left,10,image,,,,,,,,,,,,,,,,,0,97,97,97,,,,,,,,,,,,,,,f,0.939128464321,2018_Aug_07_0904,None,Arrows_VVA_Direction,1001,Whi,
,,,,,ahead_image_18_WHI.jpg,ahead,18,image,,,,,,,,,,,,,,,,,0,98,98,98,,,,,,,,,,,,,,,f,0.487486267695,2018_Aug_07_0904,None,Arrows_VVA_Direction,1001,Whi,
,,,,,left_image_8_WHI.jpg,left,8,image,,,,,,,,,,,,,,,,,0,99,99,99,,,,,,,,,,,,,,,f,0.515746644698,2018_Aug_07_0904,None,Arrows_VVA_Direction,1001,Whi,
,,,,,ahead_image_16_WHI.jpg,ahead,16,image,,,,,,,,,,,,,,,,,0,100,100,100,,,,,,,,,,,,,,,f,0.465423230315,2018_Aug_07_0904,None,Arrows_VVA_Direction,1001,Whi,
,,,,,right_image_9_WHI.jpg,right,9,image,,,,,,,,,,,,,,,,,0,101,101,101,,,,,,,,,,,,,,,f,0.534293504898,2018_Aug_07_0904,None,Arrows_VVA_Direction,1001,Whi,
,,,,,right_image_16_WHI.jpg,right,16,image,,,,,,,,,,,,,,,,,0,102,102,102,,,,,,,,,,,,,,,f,0.437892773189,2018_Aug_07_0904,None,Arrows_VVA_Direction,1001,Whi,
,,,,,right_image_11_WHI.jpg,right,11,image,,,,,,,,,,,,,,,,,0,103,103,103,,,,,,,,,,,,,,,f,0.552943818271,2018_Aug_07_0904,None,Arrows_VVA_Direction,1001,Whi,
,,,,,ahead_image_21_WHI.jpg,ahead,21,image,,,,,,,,,,,,,,,,,0,104,104,104,,,,,,,,,,,,,,,f,0.619171109982,2018_Aug_07_0904,None,Arrows_VVA_Direction,1001,Whi,
