Stimulus_Practice,Direction,Number,Background,Format,Stimulus,direction,number,format,repeat_spatial_practice.thisRepN,repeat_spatial_practice.thisTrialN,repeat_spatial_practice.thisN,repeat_spatial_practice.thisIndex,trials.thisRepN,trials.thisTrialN,trials.thisN,trials.thisIndex,trials_3.thisRepN,trials_3.thisTrialN,trials_3.thisN,trials_3.thisIndex,trials_4.thisRepN,trials_4.thisTrialN,trials_4.thisN,trials_4.thisIndex,trials_2.thisRepN,trials_2.thisTrialN,trials_2.thisN,trials_2.thisIndex,key_resp_7.keys,key_resp_7.rt,key_resp_6.keys,key_resp_6.rt,key_resp_11.keys,key_resp_11.rt,key_resp_2.keys,key_resp_2.rt,key_resp_12.keys,key_resp_12.rt,key_resp_14.keys,key_resp_14.rt,key_resp_13.keys,key_resp_13.rt,direction_response.keys,direction_response.rt,date,frameRate,expName,participant,Scr or Whi,
,,,,,,,,,,,,,,,,,,,,,,,,,,,,,d,0.548566762591,,,,,,,,,,,,,,,2018_Aug_07_1009,None,Arrows_VVA_Direction,1001,Whi,
left_word_1_WHI.jpg,left,1,_WHI,word,,,,,0,0,0,0,0,0,0,0,,,,,,,,,,,,,,,s,0.267620707862,f,0.472057372332,,,,,,,,,,,2018_Aug_07_1009,None,Arrows_VVA_Direction,1001,Whi,
right_word_3_WHI.jpg,right,3,_WHI,word,,,,,0,0,0,0,0,1,1,1,,,,,,,,,,,,,,,,,a,0.400836410932,,,,,,,,,,,2018_Aug_07_1009,None,Arrows_VVA_Direction,1001,Whi,
ahead_word_2_WHI.jpg,ahead,2,_WHI,word,,,,,0,0,0,0,0,2,2,7,,,,,,,,,,,,,,,,,f,0.256259329384,,,,,,,,,,,2018_Aug_07_1009,None,Arrows_VVA_Direction,1001,Whi,
right_word_1_WHI.jpg,right,1,_WHI,word,,,,,0,0,0,0,0,3,3,6,,,,,,,,,,,,,,,,,a,0.294565340504,,,,,,,,,,,2018_Aug_07_1009,None,Arrows_VVA_Direction,1001,Whi,
ahead_word_3_WHI.jpg,ahead,3,_WHI,word,,,,,0,0,0,0,0,4,4,4,,,,,,,,,,,,,,,,,f,0.318525020033,,,,,,,,,,,2018_Aug_07_1009,None,Arrows_VVA_Direction,1001,Whi,
left_word_2_WHI.jpg,left,2,_WHI,word,,,,,0,0,0,0,0,5,5,5,,,,,,,,,,,,,,,,,a,0.3094650649,,,,,,,,,,,2018_Aug_07_1009,None,Arrows_VVA_Direction,1001,Whi,
left_word_3_WHI.jpg,left,3,_WHI,word,,,,,0,0,0,0,0,6,6,2,,,,,,,,,,,,,,,,,f,0.301701969234,,,,,,,,,,,2018_Aug_07_1009,None,Arrows_VVA_Direction,1001,Whi,
right_word_2_WHI.jpg,right,2,_WHI,word,,,,,0,0,0,0,0,7,7,3,,,,,,,,,,,,,,,,,a,0.390236562816,,,,,,,,,,,2018_Aug_07_1009,None,Arrows_VVA_Direction,1001,Whi,
ahead_word_1_WHI.jpg,ahead,1,_WHI,word,,,,,0,0,0,0,0,8,8,8,,,,,,,,,,,,,,,,,None,,,,,,,,,,,,2018_Aug_07_1009,None,Arrows_VVA_Direction,1001,Whi,
left_image_1_WHI.jpg,left,1,_WHI,image,,,,,0,0,0,0,,,,,0,0,0,3,,,,,,,,,,,,,,,d,0.960338012781,f,0.248400991084,,,,,,,2018_Aug_07_1009,None,Arrows_VVA_Direction,1001,Whi,
left_image_3_WHI.jpg,left,3,_WHI,image,,,,,0,0,0,0,,,,,0,1,1,2,,,,,,,,,,,,,,,,,a,0.49776056665,,,,,,,2018_Aug_07_1009,None,Arrows_VVA_Direction,1001,Whi,
ahead_image_1_WHI.jpg,ahead,1,_WHI,image,,,,,0,0,0,0,,,,,0,2,2,0,,,,,,,,,,,,,,,,,f,0.0827227404807,,,,,,,2018_Aug_07_1009,None,Arrows_VVA_Direction,1001,Whi,
ahead_image_2_WHI.jpg,ahead,2,_WHI,image,,,,,0,0,0,0,,,,,0,3,3,1,,,,,,,,,,,,,,,,,a,0.341865211958,,,,,,,2018_Aug_07_1009,None,Arrows_VVA_Direction,1001,Whi,
right_image_2_WHI.jpg,right,2,_WHI,image,,,,,0,0,0,0,,,,,0,4,4,7,,,,,,,,,,,,,,,,,f,0.266993830446,,,,,,,2018_Aug_07_1009,None,Arrows_VVA_Direction,1001,Whi,
right_image_3_WHI.jpg,right,3,_WHI,image,,,,,0,0,0,0,,,,,0,5,5,4,,,,,,,,,,,,,,,,,a,0.290549139492,,,,,,,2018_Aug_07_1009,None,Arrows_VVA_Direction,1001,Whi,
left_image_2_WHI.jpg,left,2,_WHI,image,,,,,0,0,0,0,,,,,0,6,6,8,,,,,,,,,,,,,,,,,f,0.284715938848,,,,,,,2018_Aug_07_1009,None,Arrows_VVA_Direction,1001,Whi,
ahead_image_3_WHI.jpg,ahead,3,_WHI,image,,,,,0,0,0,0,,,,,0,7,7,6,,,,,,,,,,,,,,,,,a,0.368535611778,,,,,,,2018_Aug_07_1009,None,Arrows_VVA_Direction,1001,Whi,
right_image_1_WHI.jpg,right,1,_WHI,image,,,,,0,0,0,0,,,,,0,8,8,5,,,,,,,,,,,,,,,,,None,,,,,,,,2018_Aug_07_1009,None,Arrows_VVA_Direction,1001,Whi,
ahead_schema_3_WHI.jpg,ahead,3,_WHI,schema,,,,,0,0,0,0,,,,,,,,,0,0,0,3,,,,,,,,,,,d,0.531499447301,,,f,0.334119358566,,,,,2018_Aug_07_1009,None,Arrows_VVA_Direction,1001,Whi,
right_schema_3_WHI.jpg,right,3,_WHI,schema,,,,,0,0,0,0,,,,,,,,,0,1,1,2,,,,,,,,,,,,,,,a,0.278035407187,,,,,2018_Aug_07_1009,None,Arrows_VVA_Direction,1001,Whi,
left_schema_3_WHI.jpg,left,3,_WHI,schema,,,,,0,0,0,0,,,,,,,,,0,2,2,5,,,,,,,,,,,,,,,f,0.235291171586,,,,,2018_Aug_07_1009,None,Arrows_VVA_Direction,1001,Whi,
left_schema_2_WHI.jpg,left,2,_WHI,schema,,,,,0,0,0,0,,,,,,,,,0,3,3,8,,,,,,,,,,,,,,,a,0.262561353622,,,,,2018_Aug_07_1009,None,Arrows_VVA_Direction,1001,Whi,
right_schema_1_WHI.jpg,right,1,_WHI,schema,,,,,0,0,0,0,,,,,,,,,0,4,4,1,,,,,,,,,,,,,,,f,0.134831954259,,,,,2018_Aug_07_1009,None,Arrows_VVA_Direction,1001,Whi,
ahead_schema_2_WHI.jpg,ahead,2,_WHI,schema,,,,,0,0,0,0,,,,,,,,,0,5,5,0,,,,,,,,,,,,,,,a,0.239000297384,,,,,2018_Aug_07_1009,None,Arrows_VVA_Direction,1001,Whi,
left_schema_1_WHI.jpg,left,1,_WHI,schema,,,,,0,0,0,0,,,,,,,,,0,6,6,6,,,,,,,,,,,,,,,f,0.254750226159,,,,,2018_Aug_07_1009,None,Arrows_VVA_Direction,1001,Whi,
ahead_schema_1_WHI.jpg,ahead,1,_WHI,schema,,,,,0,0,0,0,,,,,,,,,0,7,7,4,,,,,,,,,,,,,,,a,0.33753783023,,,,,2018_Aug_07_1009,None,Arrows_VVA_Direction,1001,Whi,
right_schema_2_WHI.jpg,right,2,_WHI,schema,,,,,0,0,0,0,,,,,,,,,0,8,8,7,,,,,,,,,,,,,,,None,,,,,,2018_Aug_07_1009,None,Arrows_VVA_Direction,1001,Whi,
ahead_word_3_WHI.jpg,ahead,3,_WHI,word,,,,,1,0,1,0,0,0,0,4,,,,,,,,,,,,,,,d,0.389816592215,f,0.344715922372,,,,,,,,,,,2018_Aug_07_1009,None,Arrows_VVA_Direction,1001,Whi,
ahead_word_1_WHI.jpg,ahead,1,_WHI,word,,,,,1,0,1,0,0,1,1,8,,,,,,,,,,,,,,,,,a,0.102774598403,,,,,,,,,,,2018_Aug_07_1009,None,Arrows_VVA_Direction,1001,Whi,
left_word_1_WHI.jpg,left,1,_WHI,word,,,,,1,0,1,0,0,2,2,0,,,,,,,,,,,,,,,,,f,0.3551507378,,,,,,,,,,,2018_Aug_07_1009,None,Arrows_VVA_Direction,1001,Whi,
left_word_2_WHI.jpg,left,2,_WHI,word,,,,,1,0,1,0,0,3,3,5,,,,,,,,,,,,,,,,,a,0.188650198281,,,,,,,,,,,2018_Aug_07_1009,None,Arrows_VVA_Direction,1001,Whi,
right_word_2_WHI.jpg,right,2,_WHI,word,,,,,1,0,1,0,0,4,4,3,,,,,,,,,,,,,,,,,f,0.291558218654,,,,,,,,,,,2018_Aug_07_1009,None,Arrows_VVA_Direction,1001,Whi,
ahead_word_2_WHI.jpg,ahead,2,_WHI,word,,,,,1,0,1,0,0,5,5,7,,,,,,,,,,,,,,,,,a,0.255058122566,,,,,,,,,,,2018_Aug_07_1009,None,Arrows_VVA_Direction,1001,Whi,
right_word_1_WHI.jpg,right,1,_WHI,word,,,,,1,0,1,0,0,6,6,6,,,,,,,,,,,,,,,,,f,0.22222035192,,,,,,,,,,,2018_Aug_07_1009,None,Arrows_VVA_Direction,1001,Whi,
right_word_3_WHI.jpg,right,3,_WHI,word,,,,,1,0,1,0,0,7,7,1,,,,,,,,,,,,,,,,,a,0.300655942643,,,,,,,,,,,2018_Aug_07_1009,None,Arrows_VVA_Direction,1001,Whi,
left_word_3_WHI.jpg,left,3,_WHI,word,,,,,1,0,1,0,0,8,8,2,,,,,,,,,,,,,,,,,None,,,,,,,,,,,,2018_Aug_07_1009,None,Arrows_VVA_Direction,1001,Whi,
left_image_3_WHI.jpg,left,3,_WHI,image,,,,,1,0,1,0,,,,,0,0,0,2,,,,,,,,,,,,,,,d,0.770341691095,f,0.256587752141,,,,,,,2018_Aug_07_1009,None,Arrows_VVA_Direction,1001,Whi,
right_image_2_WHI.jpg,right,2,_WHI,image,,,,,1,0,1,0,,,,,0,1,1,7,,,,,,,,,,,,,,,,,a,0.272360260133,,,,,,,2018_Aug_07_1009,None,Arrows_VVA_Direction,1001,Whi,
right_image_1_WHI.jpg,right,1,_WHI,image,,,,,1,0,1,0,,,,,0,2,2,5,,,,,,,,,,,,,,,,,f,0.287785050692,,,,,,,2018_Aug_07_1009,None,Arrows_VVA_Direction,1001,Whi,
right_image_3_WHI.jpg,right,3,_WHI,image,,,,,1,0,1,0,,,,,0,3,3,4,,,,,,,,,,,,,,,,,a,0.384216161212,,,,,,,2018_Aug_07_1009,None,Arrows_VVA_Direction,1001,Whi,
ahead_image_3_WHI.jpg,ahead,3,_WHI,image,,,,,1,0,1,0,,,,,0,4,4,6,,,,,,,,,,,,,,,,,f,0.259167924291,,,,,,,2018_Aug_07_1009,None,Arrows_VVA_Direction,1001,Whi,
left_image_1_WHI.jpg,left,1,_WHI,image,,,,,1,0,1,0,,,,,0,5,5,3,,,,,,,,,,,,,,,,,a,0.367133656517,,,,,,,2018_Aug_07_1009,None,Arrows_VVA_Direction,1001,Whi,
ahead_image_1_WHI.jpg,ahead,1,_WHI,image,,,,,1,0,1,0,,,,,0,6,6,0,,,,,,,,,,,,,,,,,f,0.27669954719,,,,,,,2018_Aug_07_1009,None,Arrows_VVA_Direction,1001,Whi,
left_image_2_WHI.jpg,left,2,_WHI,image,,,,,1,0,1,0,,,,,0,7,7,8,,,,,,,,,,,,,,,,,a,0.40528202476,,,,,,,2018_Aug_07_1009,None,Arrows_VVA_Direction,1001,Whi,
ahead_image_2_WHI.jpg,ahead,2,_WHI,image,,,,,1,0,1,0,,,,,0,8,8,1,,,,,,,,,,,,,,,,,None,,,,,,,,2018_Aug_07_1009,None,Arrows_VVA_Direction,1001,Whi,
right_schema_3_WHI.jpg,right,3,_WHI,schema,,,,,1,0,1,0,,,,,,,,,0,0,0,2,,,,,,,,,,,d,0.540110284463,,,f,0.328681086656,,,,,2018_Aug_07_1009,None,Arrows_VVA_Direction,1001,Whi,
ahead_schema_1_WHI.jpg,ahead,1,_WHI,schema,,,,,1,0,1,0,,,,,,,,,0,1,1,4,,,,,,,,,,,,,,,a,0.324123808881,,,,,2018_Aug_07_1009,None,Arrows_VVA_Direction,1001,Whi,
left_schema_3_WHI.jpg,left,3,_WHI,schema,,,,,1,0,1,0,,,,,,,,,0,2,2,5,,,,,,,,,,,,,,,f,0.253452134784,,,,,2018_Aug_07_1009,None,Arrows_VVA_Direction,1001,Whi,
left_schema_2_WHI.jpg,left,2,_WHI,schema,,,,,1,0,1,0,,,,,,,,,0,3,3,8,,,,,,,,,,,,,,,a,0.209788314998,,,,,2018_Aug_07_1009,None,Arrows_VVA_Direction,1001,Whi,
right_schema_2_WHI.jpg,right,2,_WHI,schema,,,,,1,0,1,0,,,,,,,,,0,4,4,7,,,,,,,,,,,,,,,f,0.28261977993,,,,,2018_Aug_07_1009,None,Arrows_VVA_Direction,1001,Whi,
ahead_schema_2_WHI.jpg,ahead,2,_WHI,schema,,,,,1,0,1,0,,,,,,,,,0,5,5,0,,,,,,,,,,,,,,,a,0.499226153595,,,,,2018_Aug_07_1009,None,Arrows_VVA_Direction,1001,Whi,
ahead_schema_3_WHI.jpg,ahead,3,_WHI,schema,,,,,1,0,1,0,,,,,,,,,0,6,6,3,,,,,,,,,,,,,,,f,0.0212830333039,,,,,2018_Aug_07_1009,None,Arrows_VVA_Direction,1001,Whi,
right_schema_1_WHI.jpg,right,1,_WHI,schema,,,,,1,0,1,0,,,,,,,,,0,7,7,1,,,,,,,,,,,,,,,a,0.483324739616,,,,,2018_Aug_07_1009,None,Arrows_VVA_Direction,1001,Whi,
left_schema_1_WHI.jpg,left,1,_WHI,schema,,,,,1,0,1,0,,,,,,,,,0,8,8,6,,,,,,,,,,,,,,,None,,,,,,2018_Aug_07_1009,None,Arrows_VVA_Direction,1001,Whi,
,,,,,,,,,,,,,,,,,,,,,,,,,,,,,,,,,,,,,,,,,d,0.394732672023,,,2018_Aug_07_1009,None,Arrows_VVA_Direction,1001,Whi,
,,,,,left_schema_5_WHI.jpg,left,5,schema,,,,,,,,,,,,,,,,,0,0,0,0,,,,,,,,,,,,,,,f,0.659387721447,2018_Aug_07_1009,None,Arrows_VVA_Direction,1001,Whi,
,,,,,ahead_schema_6_WHI.jpg,ahead,6,schema,,,,,,,,,,,,,,,,,0,1,1,1,,,,,,,,,,,,,,,a,0.719320788747,2018_Aug_07_1009,None,Arrows_VVA_Direction,1001,Whi,
,,,,,left_schema_4_WHI.jpg,left,4,schema,,,,,,,,,,,,,,,,,0,2,2,2,,,,,,,,,,,,,,,f,0.345582548296,2018_Aug_07_1009,None,Arrows_VVA_Direction,1001,Whi,
,,,,,left_schema_15_WHI.jpg,left,15,schema,,,,,,,,,,,,,,,,,0,3,3,3,,,,,,,,,,,,,,,a,0.260066571413,2018_Aug_07_1009,None,Arrows_VVA_Direction,1001,Whi,
,,,,,ahead_schema_7_WHI.jpg,ahead,7,schema,,,,,,,,,,,,,,,,,0,4,4,4,,,,,,,,,,,,,,,f,0.225457369816,2018_Aug_07_1009,None,Arrows_VVA_Direction,1001,Whi,
,,,,,left_schema_14_WHI.jpg,left,14,schema,,,,,,,,,,,,,,,,,0,5,5,5,,,,,,,,,,,,,,,a,0.249040184077,2018_Aug_07_1009,None,Arrows_VVA_Direction,1001,Whi,
,,,,,left_schema_6_WHI.jpg,left,6,schema,,,,,,,,,,,,,,,,,0,6,6,6,,,,,,,,,,,,,,,f,0.279131929157,2018_Aug_07_1009,None,Arrows_VVA_Direction,1001,Whi,
,,,,,ahead_schema_13_WHI.jpg,ahead,13,schema,,,,,,,,,,,,,,,,,0,7,7,7,,,,,,,,,,,,,,,a,0.221745780902,2018_Aug_07_1009,None,Arrows_VVA_Direction,1001,Whi,
,,,,,ahead_schema_10_WHI.jpg,ahead,10,schema,,,,,,,,,,,,,,,,,0,8,8,8,,,,,,,,,,,,,,,f,0.276536978083,2018_Aug_07_1009,None,Arrows_VVA_Direction,1001,Whi,
,,,,,right_schema_7_WHI.jpg,right,7,schema,,,,,,,,,,,,,,,,,0,9,9,9,,,,,,,,,,,,,,,a,0.361055781133,2018_Aug_07_1009,None,Arrows_VVA_Direction,1001,Whi,
,,,,,right_schema_21_WHI.jpg,right,21,schema,,,,,,,,,,,,,,,,,0,10,10,10,,,,,,,,,,,,,,,f,0.291952736676,2018_Aug_07_1009,None,Arrows_VVA_Direction,1001,Whi,
,,,,,right_schema_20_WHI.jpg,right,20,schema,,,,,,,,,,,,,,,,,0,11,11,11,,,,,,,,,,,,,,,a,0.405378088588,2018_Aug_07_1009,None,Arrows_VVA_Direction,1001,Whi,
,,,,,right_schema_14_WHI.jpg,right,14,schema,,,,,,,,,,,,,,,,,0,12,12,12,,,,,,,,,,,,,,,f,0.296708299778,2018_Aug_07_1009,None,Arrows_VVA_Direction,1001,Whi,
,,,,,right_schema_16_WHI.jpg,right,16,schema,,,,,,,,,,,,,,,,,0,13,13,13,,,,,,,,,,,,,,,a,0.330176642397,2018_Aug_07_1009,None,Arrows_VVA_Direction,1001,Whi,
,,,,,ahead_schema_14_WHI.jpg,ahead,14,schema,,,,,,,,,,,,,,,,,0,14,14,14,,,,,,,,,,,,,,,f,0.355704541085,2018_Aug_07_1009,None,Arrows_VVA_Direction,1001,Whi,
,,,,,right_schema_13_WHI.jpg,right,13,schema,,,,,,,,,,,,,,,,,0,15,15,15,,,,,,,,,,,,,,,a,0.343220777344,2018_Aug_07_1009,None,Arrows_VVA_Direction,1001,Whi,
,,,,,ahead_schema_17_WHI.jpg,ahead,17,schema,,,,,,,,,,,,,,,,,0,16,16,16,,,,,,,,,,,,,,,f,0.513957971707,2018_Aug_07_1009,None,Arrows_VVA_Direction,1001,Whi,
,,,,,left_schema_17_WHI.jpg,left,17,schema,,,,,,,,,,,,,,,,,0,17,17,17,,,,,,,,,,,,,,,a,0.416785446228,2018_Aug_07_1009,None,Arrows_VVA_Direction,1001,Whi,
,,,,,ahead_schema_1_WHI.jpg,ahead,1,schema,,,,,,,,,,,,,,,,,0,18,18,18,,,,,,,,,,,,,,,f,0.341412398964,2018_Aug_07_1009,None,Arrows_VVA_Direction,1001,Whi,
,,,,,right_schema_10_WHI.jpg,right,10,schema,,,,,,,,,,,,,,,,,0,19,19,19,,,,,,,,,,,,,,,a,0.367467005737,2018_Aug_07_1009,None,Arrows_VVA_Direction,1001,Whi,
,,,,,ahead_image_6_WHI.jpg,ahead,6,image,,,,,,,,,,,,,,,,,0,20,20,20,,,,,,,,,,,,,,,f,0.386816038983,2018_Aug_07_1009,None,Arrows_VVA_Direction,1001,Whi,
,,,,,left_image_2_WHI.jpg,left,2,image,,,,,,,,,,,,,,,,,0,21,21,21,,,,,,,,,,,,,,,a,0.384797469713,2018_Aug_07_1009,None,Arrows_VVA_Direction,1001,Whi,
,,,,,right_image_10_WHI.jpg,right,10,image,,,,,,,,,,,,,,,,,0,22,22,22,,,,,,,,,,,,,,,f,0.152431725059,2018_Aug_07_1009,None,Arrows_VVA_Direction,1001,Whi,
,,,,,left_image_12_WHI.jpg,left,12,image,,,,,,,,,,,,,,,,,0,23,23,23,,,,,,,,,,,,,,,a,0.238788875053,2018_Aug_07_1009,None,Arrows_VVA_Direction,1001,Whi,
,,,,,left_image_8_WHI.jpg,left,8,image,,,,,,,,,,,,,,,,,0,24,24,24,,,,,,,,,,,,,,,f,0.231380476151,2018_Aug_07_1009,None,Arrows_VVA_Direction,1001,Whi,
,,,,,ahead_image_9_WHI.jpg,ahead,9,image,,,,,,,,,,,,,,,,,0,25,25,25,,,,,,,,,,,,,,,a,0.236473083263,2018_Aug_07_1009,None,Arrows_VVA_Direction,1001,Whi,
,,,,,ahead_image_19_WHI.jpg,ahead,19,image,,,,,,,,,,,,,,,,,0,26,26,26,,,,,,,,,,,,,,,f,0.238716211403,2018_Aug_07_1009,None,Arrows_VVA_Direction,1001,Whi,
,,,,,ahead_image_21_WHI.jpg,ahead,21,image,,,,,,,,,,,,,,,,,0,27,27,27,,,,,,,,,,,,,,,a,0.239551226608,2018_Aug_07_1009,None,Arrows_VVA_Direction,1001,Whi,
,,,,,right_image_2_WHI.jpg,right,2,image,,,,,,,,,,,,,,,,,0,28,28,28,,,,,,,,,,,,,,,f,0.416292811977,2018_Aug_07_1009,None,Arrows_VVA_Direction,1001,Whi,
,,,,,right_image_16_WHI.jpg,right,16,image,,,,,,,,,,,,,,,,,0,29,29,29,,,,,,,,,,,,,,,a,0.24676996097,2018_Aug_07_1009,None,Arrows_VVA_Direction,1001,Whi,
,,,,,left_image_13_WHI.jpg,left,13,image,,,,,,,,,,,,,,,,,0,30,30,30,,,,,,,,,,,,,,,f,0.268477070378,2018_Aug_07_1009,None,Arrows_VVA_Direction,1001,Whi,
,,,,,left_image_15_WHI.jpg,left,15,image,,,,,,,,,,,,,,,,,0,31,31,31,,,,,,,,,,,,,,,a,0.236482935958,2018_Aug_07_1009,None,Arrows_VVA_Direction,1001,Whi,
,,,,,left_image_14_WHI.jpg,left,14,image,,,,,,,,,,,,,,,,,0,32,32,32,,,,,,,,,,,,,,,f,0.192735778866,2018_Aug_07_1009,None,Arrows_VVA_Direction,1001,Whi,
,,,,,ahead_image_1_WHI.jpg,ahead,1,image,,,,,,,,,,,,,,,,,0,33,33,33,,,,,,,,,,,,,,,a,0.285639217589,2018_Aug_07_1009,None,Arrows_VVA_Direction,1001,Whi,
,,,,,ahead_image_18_WHI.jpg,ahead,18,image,,,,,,,,,,,,,,,,,0,34,34,34,,,,,,,,,,,,,,,f,0.245347479591,2018_Aug_07_1009,None,Arrows_VVA_Direction,1001,Whi,
,,,,,ahead_image_10_WHI.jpg,ahead,10,image,,,,,,,,,,,,,,,,,0,35,35,35,,,,,,,,,,,,,,,a,0.224205668317,2018_Aug_07_1009,None,Arrows_VVA_Direction,1001,Whi,
,,,,,right_image_15_WHI.jpg,right,15,image,,,,,,,,,,,,,,,,,0,36,36,36,,,,,,,,,,,,,,,f,0.275582498871,2018_Aug_07_1009,None,Arrows_VVA_Direction,1001,Whi,
,,,,,right_image_14_WHI.jpg,right,14,image,,,,,,,,,,,,,,,,,0,37,37,37,,,,,,,,,,,,,,,a,0.245586407138,2018_Aug_07_1009,None,Arrows_VVA_Direction,1001,Whi,
,,,,,right_image_7_WHI.jpg,right,7,image,,,,,,,,,,,,,,,,,0,38,38,38,,,,,,,,,,,,,,,f,0.209319901885,2018_Aug_07_1009,None,Arrows_VVA_Direction,1001,Whi,
,,,,,right_image_17_WHI.jpg,right,17,image,,,,,,,,,,,,,,,,,0,39,39,39,,,,,,,,,,,,,,,a,0.371018488659,2018_Aug_07_1009,None,Arrows_VVA_Direction,1001,Whi,
,,,,,left_word_17_WHI.jpg,left,17,word,,,,,,,,,,,,,,,,,0,40,40,40,,,,,,,,,,,,,,,f,0.336026674602,2018_Aug_07_1009,None,Arrows_VVA_Direction,1001,Whi,
,,,,,right_word_16_WHI.jpg,right,16,word,,,,,,,,,,,,,,,,,0,41,41,41,,,,,,,,,,,,,,,a,0.29084513057,2018_Aug_07_1009,None,Arrows_VVA_Direction,1001,Whi,
,,,,,ahead_word_2_WHI.jpg,ahead,2,word,,,,,,,,,,,,,,,,,0,42,42,42,,,,,,,,,,,,,,,f,0.256350056035,2018_Aug_07_1009,None,Arrows_VVA_Direction,1001,Whi,
,,,,,ahead_word_8_WHI.jpg,ahead,8,word,,,,,,,,,,,,,,,,,0,43,43,43,,,,,,,,,,,,,,,a,0.266163331224,2018_Aug_07_1009,None,Arrows_VVA_Direction,1001,Whi,
,,,,,right_word_20_WHI.jpg,right,20,word,,,,,,,,,,,,,,,,,0,44,44,44,,,,,,,,,,,,,,,f,0.27423309139,2018_Aug_07_1009,None,Arrows_VVA_Direction,1001,Whi,
,,,,,left_word_4_WHI.jpg,left,4,word,,,,,,,,,,,,,,,,,0,45,45,45,,,,,,,,,,,,,,,a,0.257882148726,2018_Aug_07_1009,None,Arrows_VVA_Direction,1001,Whi,
,,,,,left_word_19_WHI.jpg,left,19,word,,,,,,,,,,,,,,,,,0,46,46,46,,,,,,,,,,,,,,,f,0.275260644732,2018_Aug_07_1009,None,Arrows_VVA_Direction,1001,Whi,
,,,,,ahead_word_3_WHI.jpg,ahead,3,word,,,,,,,,,,,,,,,,,0,47,47,47,,,,,,,,,,,,,,,a,0.256302845199,2018_Aug_07_1009,None,Arrows_VVA_Direction,1001,Whi,
,,,,,ahead_word_16_WHI.jpg,ahead,16,word,,,,,,,,,,,,,,,,,0,48,48,48,,,,,,,,,,,,,,,f,0.259074734291,2018_Aug_07_1009,None,Arrows_VVA_Direction,1001,Whi,
,,,,,right_word_18_WHI.jpg,right,18,word,,,,,,,,,,,,,,,,,0,49,49,49,,,,,,,,,,,,,,,a,0.286190968007,2018_Aug_07_1009,None,Arrows_VVA_Direction,1001,Whi,
,,,,,left_word_21_WHI.jpg,left,21,word,,,,,,,,,,,,,,,,,0,50,50,50,,,,,,,,,,,,,,,f,0.293237691047,2018_Aug_07_1009,None,Arrows_VVA_Direction,1001,Whi,
,,,,,left_word_1_WHI.jpg,left,1,word,,,,,,,,,,,,,,,,,0,51,51,51,,,,,,,,,,,,,,,a,0.248860372696,2018_Aug_07_1009,None,Arrows_VVA_Direction,1001,Whi,
,,,,,ahead_word_6_WHI.jpg,ahead,6,word,,,,,,,,,,,,,,,,,0,52,52,52,,,,,,,,,,,,,,,f,0.294621172594,2018_Aug_07_1009,None,Arrows_VVA_Direction,1001,Whi,
,,,,,left_word_15_WHI.jpg,left,15,word,,,,,,,,,,,,,,,,,0,53,53,53,,,,,,,,,,,,,,,a,0.231816047104,2018_Aug_07_1009,None,Arrows_VVA_Direction,1001,Whi,
,,,,,right_word_5_WHI.jpg,right,5,word,,,,,,,,,,,,,,,,,0,54,54,54,,,,,,,,,,,,,,,f,0.265918245539,2018_Aug_07_1009,None,Arrows_VVA_Direction,1001,Whi,
,,,,,left_word_6_WHI.jpg,left,6,word,,,,,,,,,,,,,,,,,0,55,55,55,,,,,,,,,,,,,,,a,0.236257555895,2018_Aug_07_1009,None,Arrows_VVA_Direction,1001,Whi,
,,,,,right_word_12_WHI.jpg,right,12,word,,,,,,,,,,,,,,,,,0,56,56,56,,,,,,,,,,,,,,,f,0.222687123111,2018_Aug_07_1009,None,Arrows_VVA_Direction,1001,Whi,
,,,,,right_word_1_WHI.jpg,right,1,word,,,,,,,,,,,,,,,,,0,57,57,57,,,,,,,,,,,,,,,a,0.300687963841,2018_Aug_07_1009,None,Arrows_VVA_Direction,1001,Whi,
,,,,,ahead_word_13_WHI.jpg,ahead,13,word,,,,,,,,,,,,,,,,,0,58,58,58,,,,,,,,,,,,,,,f,0.332528970903,2018_Aug_07_1009,None,Arrows_VVA_Direction,1001,Whi,
,,,,,right_word_19_WHI.jpg,right,19,word,,,,,,,,,,,,,,,,,0,59,59,59,,,,,,,,,,,,,,,a,0.349369674455,2018_Aug_07_1009,None,Arrows_VVA_Direction,1001,Whi,
,,,,,right_word_13_WHI.jpg,right,13,word,,,,,,,,,,,,,,,,,0,60,60,60,,,,,,,,,,,,,,,f,0.609870174434,2018_Aug_07_1009,None,Arrows_VVA_Direction,1001,Whi,
,,,,,ahead_word_12_WHI.jpg,ahead,12,word,,,,,,,,,,,,,,,,,0,61,61,61,,,,,,,,,,,,,,,a,0.253945179749,2018_Aug_07_1009,None,Arrows_VVA_Direction,1001,Whi,
,,,,,right_word_14_WHI.jpg,right,14,word,,,,,,,,,,,,,,,,,0,62,62,62,,,,,,,,,,,,,,,f,0.179534411291,2018_Aug_07_1009,None,Arrows_VVA_Direction,1001,Whi,
,,,,,right_word_8_WHI.jpg,right,8,word,,,,,,,,,,,,,,,,,0,63,63,63,,,,,,,,,,,,,,,a,0.152832400752,2018_Aug_07_1009,None,Arrows_VVA_Direction,1001,Whi,
,,,,,right_word_2_WHI.jpg,right,2,word,,,,,,,,,,,,,,,,,0,64,64,64,,,,,,,,,,,,,,,f,0.318822242785,2018_Aug_07_1009,None,Arrows_VVA_Direction,1001,Whi,
,,,,,left_word_10_WHI.jpg,left,10,word,,,,,,,,,,,,,,,,,0,65,65,65,,,,,,,,,,,,,,,a,0.314085563878,2018_Aug_07_1009,None,Arrows_VVA_Direction,1001,Whi,
,,,,,left_word_13_WHI.jpg,left,13,word,,,,,,,,,,,,,,,,,0,66,66,66,,,,,,,,,,,,,,,f,0.153499099426,2018_Aug_07_1009,None,Arrows_VVA_Direction,1001,Whi,
,,,,,right_word_11_WHI.jpg,right,11,word,,,,,,,,,,,,,,,,,0,67,67,67,,,,,,,,,,,,,,,a,0.266967967385,2018_Aug_07_1009,None,Arrows_VVA_Direction,1001,Whi,
,,,,,left_word_5_WHI.jpg,left,5,word,,,,,,,,,,,,,,,,,0,68,68,68,,,,,,,,,,,,,,,f,0.235241497634,2018_Aug_07_1009,None,Arrows_VVA_Direction,1001,Whi,
,,,,,ahead_word_18_WHI.jpg,ahead,18,word,,,,,,,,,,,,,,,,,0,69,69,69,,,,,,,,,,,,,,,a,0.253203354543,2018_Aug_07_1009,None,Arrows_VVA_Direction,1001,Whi,
,,,,,ahead_word_20_WHI.jpg,ahead,20,word,,,,,,,,,,,,,,,,,0,70,70,70,,,,,,,,,,,,,,,f,0.248904299224,2018_Aug_07_1009,None,Arrows_VVA_Direction,1001,Whi,
,,,,,ahead_word_14_WHI.jpg,ahead,14,word,,,,,,,,,,,,,,,,,0,71,71,71,,,,,,,,,,,,,,,a,0.225655244663,2018_Aug_07_1009,None,Arrows_VVA_Direction,1001,Whi,
,,,,,left_word_9_WHI.jpg,left,9,word,,,,,,,,,,,,,,,,,0,72,72,72,,,,,,,,,,,,,,,f,0.323945228942,2018_Aug_07_1009,None,Arrows_VVA_Direction,1001,Whi,
,,,,,left_word_16_WHI.jpg,left,16,word,,,,,,,,,,,,,,,,,0,73,73,73,,,,,,,,,,,,,,,a,0.317331203027,2018_Aug_07_1009,None,Arrows_VVA_Direction,1001,Whi,
,,,,,ahead_word_19_WHI.jpg,ahead,19,word,,,,,,,,,,,,,,,,,0,74,74,74,,,,,,,,,,,,,,,f,0.256493330467,2018_Aug_07_1009,None,Arrows_VVA_Direction,1001,Whi,
,,,,,right_word_10_WHI.jpg,right,10,word,,,,,,,,,,,,,,,,,0,75,75,75,,,,,,,,,,,,,,,a,0.263417305658,2018_Aug_07_1009,None,Arrows_VVA_Direction,1001,Whi,
,,,,,ahead_word_7_WHI.jpg,ahead,7,word,,,,,,,,,,,,,,,,,0,76,76,76,,,,,,,,,,,,,,,f,0.265143167926,2018_Aug_07_1009,None,Arrows_VVA_Direction,1001,Whi,
,,,,,ahead_word_21_WHI.jpg,ahead,21,word,,,,,,,,,,,,,,,,,0,77,77,77,,,,,,,,,,,,,,,a,0.298813079717,2018_Aug_07_1009,None,Arrows_VVA_Direction,1001,Whi,
,,,,,left_word_3_WHI.jpg,left,3,word,,,,,,,,,,,,,,,,,0,78,78,78,,,,,,,,,,,,,,,f,0.318510651588,2018_Aug_07_1009,None,Arrows_VVA_Direction,1001,Whi,
,,,,,right_word_4_WHI.jpg,right,4,word,,,,,,,,,,,,,,,,,0,79,79,79,,,,,,,,,,,,,,,a,0.231039737584,2018_Aug_07_1009,None,Arrows_VVA_Direction,1001,Whi,
,,,,,left_image_3_WHI.jpg,left,3,image,,,,,,,,,,,,,,,,,0,80,80,80,,,,,,,,,,,,,,,f,0.223412116524,2018_Aug_07_1009,None,Arrows_VVA_Direction,1001,Whi,
,,,,,left_image_20_WHI.jpg,left,20,image,,,,,,,,,,,,,,,,,0,81,81,81,,,,,,,,,,,,,,,a,0.451497690286,2018_Aug_07_1009,None,Arrows_VVA_Direction,1001,Whi,
,,,,,left_image_17_WHI.jpg,left,17,image,,,,,,,,,,,,,,,,,0,82,82,82,,,,,,,,,,,,,,,f,0.321983723203,2018_Aug_07_1009,None,Arrows_VVA_Direction,1001,Whi,
,,,,,right_image_20_WHI.jpg,right,20,image,,,,,,,,,,,,,,,,,0,83,83,83,,,,,,,,,,,,,,,a,0.189013516298,2018_Aug_07_1009,None,Arrows_VVA_Direction,1001,Whi,
,,,,,ahead_image_15_WHI.jpg,ahead,15,image,,,,,,,,,,,,,,,,,0,84,84,84,,,,,,,,,,,,,,,f,0.197528289631,2018_Aug_07_1009,None,Arrows_VVA_Direction,1001,Whi,
,,,,,ahead_image_13_WHI.jpg,ahead,13,image,,,,,,,,,,,,,,,,,0,85,85,85,,,,,,,,,,,,,,,a,0.219944792101,2018_Aug_07_1009,None,Arrows_VVA_Direction,1001,Whi,
,,,,,right_image_9_WHI.jpg,right,9,image,,,,,,,,,,,,,,,,,0,86,86,86,,,,,,,,,,,,,,,f,0.228514576331,2018_Aug_07_1009,None,Arrows_VVA_Direction,1001,Whi,
,,,,,ahead_image_11_WHI.jpg,ahead,11,image,,,,,,,,,,,,,,,,,0,87,87,87,,,,,,,,,,,,,,,a,0.24001060822,2018_Aug_07_1009,None,Arrows_VVA_Direction,1001,Whi,
,,,,,right_image_13_WHI.jpg,right,13,image,,,,,,,,,,,,,,,,,0,88,88,88,,,,,,,,,,,,,,,f,0.25454742508,2018_Aug_07_1009,None,Arrows_VVA_Direction,1001,Whi,
,,,,,left_image_11_WHI.jpg,left,11,image,,,,,,,,,,,,,,,,,0,89,89,89,,,,,,,,,,,,,,,a,0.276030385634,2018_Aug_07_1009,None,Arrows_VVA_Direction,1001,Whi,
,,,,,right_image_19_WHI.jpg,right,19,image,,,,,,,,,,,,,,,,,0,90,90,90,,,,,,,,,,,,,,,f,0.354670830071,2018_Aug_07_1009,None,Arrows_VVA_Direction,1001,Whi,
,,,,,left_image_16_WHI.jpg,left,16,image,,,,,,,,,,,,,,,,,0,91,91,91,,,,,,,,,,,,,,,a,0.325485532172,2018_Aug_07_1009,None,Arrows_VVA_Direction,1001,Whi,
,,,,,ahead_image_14_WHI.jpg,ahead,14,image,,,,,,,,,,,,,,,,,0,92,92,92,,,,,,,,,,,,,,,f,0.485257918714,2018_Aug_07_1009,None,Arrows_VVA_Direction,1001,Whi,
,,,,,ahead_image_20_WHI.jpg,ahead,20,image,,,,,,,,,,,,,,,,,0,93,93,93,,,,,,,,,,,,,,,a,0.275187160121,2018_Aug_07_1009,None,Arrows_VVA_Direction,1001,Whi,
,,,,,ahead_image_3_WHI.jpg,ahead,3,image,,,,,,,,,,,,,,,,,0,94,94,94,,,,,,,,,,,,,,,f,0.278541588923,2018_Aug_07_1009,None,Arrows_VVA_Direction,1001,Whi,
,,,,,left_image_21_WHI.jpg,left,21,image,,,,,,,,,,,,,,,,,0,95,95,95,,,,,,,,,,,,,,,a,0.256618952379,2018_Aug_07_1009,None,Arrows_VVA_Direction,1001,Whi,
,,,,,right_image_11_WHI.jpg,right,11,image,,,,,,,,,,,,,,,,,0,96,96,96,,,,,,,,,,,,,,,f,0.25523382891,2018_Aug_07_1009,None,Arrows_VVA_Direction,1001,Whi,
,,,,,ahead_image_8_WHI.jpg,ahead,8,image,,,,,,,,,,,,,,,,,0,97,97,97,,,,,,,,,,,,,,,a,0.247601691866,2018_Aug_07_1009,None,Arrows_VVA_Direction,1001,Whi,
,,,,,left_image_6_WHI.jpg,left,6,image,,,,,,,,,,,,,,,,,0,98,98,98,,,,,,,,,,,,,,,f,0.265533169731,2018_Aug_07_1009,None,Arrows_VVA_Direction,1001,Whi,
,,,,,right_image_8_WHI.jpg,right,8,image,,,,,,,,,,,,,,,,,0,99,99,99,,,,,,,,,,,,,,,a,0.316206354648,2018_Aug_07_1009,None,Arrows_VVA_Direction,1001,Whi,
,,,,,ahead_schema_5_WHI.jpg,ahead,5,schema,,,,,,,,,,,,,,,,,0,100,100,100,,,,,,,,,,,,,,,f,0.27704028599,2018_Aug_07_1009,None,Arrows_VVA_Direction,1001,Whi,
,,,,,right_schema_1_WHI.jpg,right,1,schema,,,,,,,,,,,,,,,,,0,101,101,101,,,,,,,,,,,,,,,a,0.251000458142,2018_Aug_07_1009,None,Arrows_VVA_Direction,1001,Whi,
,,,,,right_schema_2_WHI.jpg,right,2,schema,,,,,,,,,,,,,,,,,0,102,102,102,,,,,,,,,,,,,,,f,0.242525095586,2018_Aug_07_1009,None,Arrows_VVA_Direction,1001,Whi,
,,,,,left_schema_2_WHI.jpg,left,2,schema,,,,,,,,,,,,,,,,,0,103,103,103,,,,,,,,,,,,,,,a,0.243408142589,2018_Aug_07_1009,None,Arrows_VVA_Direction,1001,Whi,
,,,,,right_schema_9_WHI.jpg,right,9,schema,,,,,,,,,,,,,,,,,0,104,104,104,,,,,,,,,,,,,,,f,0.217809632886,2018_Aug_07_1009,None,Arrows_VVA_Direction,1001,Whi,
,,,,,left_schema_13_WHI.jpg,left,13,schema,,,,,,,,,,,,,,,,,0,105,105,105,,,,,,,,,,,,,,,a,0.234086269978,2018_Aug_07_1009,None,Arrows_VVA_Direction,1001,Whi,
,,,,,ahead_schema_20_WHI.jpg,ahead,20,schema,,,,,,,,,,,,,,,,,0,106,106,106,,,,,,,,,,,,,,,f,0.25840393058,2018_Aug_07_1009,None,Arrows_VVA_Direction,1001,Whi,
,,,,,right_schema_17_WHI.jpg,right,17,schema,,,,,,,,,,,,,,,,,0,107,107,107,,,,,,,,,,,,,,,a,0.281271193409,2018_Aug_07_1009,None,Arrows_VVA_Direction,1001,Whi,
,,,,,ahead_schema_21_WHI.jpg,ahead,21,schema,,,,,,,,,,,,,,,,,0,108,108,108,,,,,,,,,,,,,,,f,0.258540636627,2018_Aug_07_1009,None,Arrows_VVA_Direction,1001,Whi,
,,,,,left_schema_21_WHI.jpg,left,21,schema,,,,,,,,,,,,,,,,,0,109,109,109,,,,,,,,,,,,,,,a,0.179480221588,2018_Aug_07_1009,None,Arrows_VVA_Direction,1001,Whi,
,,,,,left_schema_10_WHI.jpg,left,10,schema,,,,,,,,,,,,,,,,,0,110,110,110,,,,,,,,,,,,,,,f,0.255054017296,2018_Aug_07_1009,None,Arrows_VVA_Direction,1001,Whi,
,,,,,left_schema_1_WHI.jpg,left,1,schema,,,,,,,,,,,,,,,,,0,111,111,111,,,,,,,,,,,,,,,a,0.268485280918,2018_Aug_07_1009,None,Arrows_VVA_Direction,1001,Whi,
,,,,,ahead_schema_11_WHI.jpg,ahead,11,schema,,,,,,,,,,,,,,,,,0,112,112,112,,,,,,,,,,,,,,,f,0.23575671087,2018_Aug_07_1009,None,Arrows_VVA_Direction,1001,Whi,
,,,,,right_schema_19_WHI.jpg,right,19,schema,,,,,,,,,,,,,,,,,0,113,113,113,,,,,,,,,,,,,,,a,0.302045171149,2018_Aug_07_1009,None,Arrows_VVA_Direction,1001,Whi,
,,,,,left_schema_3_WHI.jpg,left,3,schema,,,,,,,,,,,,,,,,,0,114,114,114,,,,,,,,,,,,,,,f,0.272126258817,2018_Aug_07_1009,None,Arrows_VVA_Direction,1001,Whi,
,,,,,ahead_schema_19_WHI.jpg,ahead,19,schema,,,,,,,,,,,,,,,,,0,115,115,115,,,,,,,,,,,,,,,a,0.276441735215,2018_Aug_07_1009,None,Arrows_VVA_Direction,1001,Whi,
,,,,,right_schema_11_WHI.jpg,right,11,schema,,,,,,,,,,,,,,,,,0,116,116,116,,,,,,,,,,,,,,,f,0.286686065374,2018_Aug_07_1009,None,Arrows_VVA_Direction,1001,Whi,
,,,,,ahead_schema_15_WHI.jpg,ahead,15,schema,,,,,,,,,,,,,,,,,0,117,117,117,,,,,,,,,,,,,,,a,0.297104459722,2018_Aug_07_1009,None,Arrows_VVA_Direction,1001,Whi,
,,,,,ahead_schema_8_WHI.jpg,ahead,8,schema,,,,,,,,,,,,,,,,,0,118,118,118,,,,,,,,,,,,,,,f,0.233793152729,2018_Aug_07_1009,None,Arrows_VVA_Direction,1001,Whi,
,,,,,left_schema_20_WHI.jpg,left,20,schema,,,,,,,,,,,,,,,,,0,119,119,119,,,,,,,,,,,,,,,a,0.455214205664,2018_Aug_07_1009,None,Arrows_VVA_Direction,1001,Whi,
,,,,,ahead_image_5_WHI.jpg,ahead,5,image,,,,,,,,,,,,,,,,,0,120,120,120,,,,,,,,,,,,,,,f,0.300155508332,2018_Aug_07_1009,None,Arrows_VVA_Direction,1001,Whi,
,,,,,right_image_5_WHI.jpg,right,5,image,,,,,,,,,,,,,,,,,0,121,121,121,,,,,,,,,,,,,,,a,0.264141888591,2018_Aug_07_1009,None,Arrows_VVA_Direction,1001,Whi,
,,,,,left_image_7_WHI.jpg,left,7,image,,,,,,,,,,,,,,,,,0,122,122,122,,,,,,,,,,,,,,,f,0.248202295508,2018_Aug_07_1009,None,Arrows_VVA_Direction,1001,Whi,
,,,,,ahead_image_17_WHI.jpg,ahead,17,image,,,,,,,,,,,,,,,,,0,123,123,123,,,,,,,,,,,,,,,a,0.225563696818,2018_Aug_07_1009,None,Arrows_VVA_Direction,1001,Whi,
,,,,,right_image_6_WHI.jpg,right,6,image,,,,,,,,,,,,,,,,,0,124,124,124,,,,,,,,,,,,,,,f,0.245845861267,2018_Aug_07_1009,None,Arrows_VVA_Direction,1001,Whi,
,,,,,left_image_1_WHI.jpg,left,1,image,,,,,,,,,,,,,,,,,0,125,125,125,,,,,,,,,,,,,,,a,0.148510355968,2018_Aug_07_1009,None,Arrows_VVA_Direction,1001,Whi,
,,,,,ahead_image_16_WHI.jpg,ahead,16,image,,,,,,,,,,,,,,,,,0,126,126,126,,,,,,,,,,,,,,,f,0.247716229409,2018_Aug_07_1009,None,Arrows_VVA_Direction,1001,Whi,
,,,,,left_image_4_WHI.jpg,left,4,image,,,,,,,,,,,,,,,,,0,127,127,127,,,,,,,,,,,,,,,a,0.287401616806,2018_Aug_07_1009,None,Arrows_VVA_Direction,1001,Whi,
,,,,,left_image_10_WHI.jpg,left,10,image,,,,,,,,,,,,,,,,,0,128,128,128,,,,,,,,,,,,,,,f,0.255016248673,2018_Aug_07_1009,None,Arrows_VVA_Direction,1001,Whi,
,,,,,right_image_4_WHI.jpg,right,4,image,,,,,,,,,,,,,,,,,0,129,129,129,,,,,,,,,,,,,,,a,0.244330189889,2018_Aug_07_1009,None,Arrows_VVA_Direction,1001,Whi,
,,,,,left_image_19_WHI.jpg,left,19,image,,,,,,,,,,,,,,,,,0,130,130,130,,,,,,,,,,,,,,,f,0.273080737796,2018_Aug_07_1009,None,Arrows_VVA_Direction,1001,Whi,
,,,,,ahead_image_2_WHI.jpg,ahead,2,image,,,,,,,,,,,,,,,,,0,131,131,131,,,,,,,,,,,,,,,a,0.278535431018,2018_Aug_07_1009,None,Arrows_VVA_Direction,1001,Whi,
,,,,,right_image_1_WHI.jpg,right,1,image,,,,,,,,,,,,,,,,,0,132,132,132,,,,,,,,,,,,,,,f,0.252096979879,2018_Aug_07_1009,None,Arrows_VVA_Direction,1001,Whi,
,,,,,ahead_image_12_WHI.jpg,ahead,12,image,,,,,,,,,,,,,,,,,0,133,133,133,,,,,,,,,,,,,,,a,0.289237090154,2018_Aug_07_1009,None,Arrows_VVA_Direction,1001,Whi,
,,,,,left_image_5_WHI.jpg,left,5,image,,,,,,,,,,,,,,,,,0,134,134,134,,,,,,,,,,,,,,,f,0.280400051968,2018_Aug_07_1009,None,Arrows_VVA_Direction,1001,Whi,
,,,,,left_image_9_WHI.jpg,left,9,image,,,,,,,,,,,,,,,,,0,135,135,135,,,,,,,,,,,,,,,a,0.287520259619,2018_Aug_07_1009,None,Arrows_VVA_Direction,1001,Whi,
,,,,,right_image_18_WHI.jpg,right,18,image,,,,,,,,,,,,,,,,,0,136,136,136,,,,,,,,,,,,,,,f,0.371134257643,2018_Aug_07_1009,None,Arrows_VVA_Direction,1001,Whi,
,,,,,right_image_3_WHI.jpg,right,3,image,,,,,,,,,,,,,,,,,0,137,137,137,,,,,,,,,,,,,,,a,0.43521530577,2018_Aug_07_1009,None,Arrows_VVA_Direction,1001,Whi,
,,,,,ahead_image_4_WHI.jpg,ahead,4,image,,,,,,,,,,,,,,,,,0,138,138,138,,,,,,,,,,,,,,,f,0.0638880997431,2018_Aug_07_1009,None,Arrows_VVA_Direction,1001,Whi,
,,,,,ahead_image_7_WHI.jpg,ahead,7,image,,,,,,,,,,,,,,,,,0,139,139,139,,,,,,,,,,,,,,,a,0.298618899891,2018_Aug_07_1009,None,Arrows_VVA_Direction,1001,Whi,
,,,,,left_schema_16_WHI.jpg,left,16,schema,,,,,,,,,,,,,,,,,0,140,140,140,,,,,,,,,,,,,,,f,0.319204444997,2018_Aug_07_1009,None,Arrows_VVA_Direction,1001,Whi,
,,,,,right_schema_12_WHI.jpg,right,12,schema,,,,,,,,,,,,,,,,,0,141,141,141,,,,,,,,,,,,,,,a,0.290435012663,2018_Aug_07_1009,None,Arrows_VVA_Direction,1001,Whi,
,,,,,right_schema_18_WHI.jpg,right,18,schema,,,,,,,,,,,,,,,,,0,142,142,142,,,,,,,,,,,,,,,f,0.223638317781,2018_Aug_07_1009,None,Arrows_VVA_Direction,1001,Whi,
,,,,,right_schema_4_WHI.jpg,right,4,schema,,,,,,,,,,,,,,,,,0,143,143,143,,,,,,,,,,,,,,,a,0.194256787421,2018_Aug_07_1009,None,Arrows_VVA_Direction,1001,Whi,
,,,,,left_schema_12_WHI.jpg,left,12,schema,,,,,,,,,,,,,,,,,0,144,144,144,,,,,,,,,,,,,,,f,0.135077039711,2018_Aug_07_1009,None,Arrows_VVA_Direction,1001,Whi,
,,,,,right_schema_8_WHI.jpg,right,8,schema,,,,,,,,,,,,,,,,,0,145,145,145,,,,,,,,,,,,,,,a,0.162736402825,2018_Aug_07_1009,None,Arrows_VVA_Direction,1001,Whi,
,,,,,left_schema_8_WHI.jpg,left,8,schema,,,,,,,,,,,,,,,,,0,146,146,146,,,,,,,,,,,,,,,f,0.139234462753,2018_Aug_07_1009,None,Arrows_VVA_Direction,1001,Whi,
,,,,,left_schema_18_WHI.jpg,left,18,schema,,,,,,,,,,,,,,,,,0,147,147,147,,,,,,,,,,,,,,,a,0.174172086874,2018_Aug_07_1009,None,Arrows_VVA_Direction,1001,Whi,
,,,,,ahead_schema_2_WHI.jpg,ahead,2,schema,,,,,,,,,,,,,,,,,0,148,148,148,,,,,,,,,,,,,,,f,0.161470332881,2018_Aug_07_1009,None,Arrows_VVA_Direction,1001,Whi,
,,,,,ahead_schema_9_WHI.jpg,ahead,9,schema,,,,,,,,,,,,,,,,,0,149,149,149,,,,,,,,,,,,,,,a,0.0776096070185,2018_Aug_07_1009,None,Arrows_VVA_Direction,1001,Whi,
,,,,,left_schema_19_WHI.jpg,left,19,schema,,,,,,,,,,,,,,,,,0,150,150,150,,,,,,,,,,,,,,,f,0.183890940621,2018_Aug_07_1009,None,Arrows_VVA_Direction,1001,Whi,
,,,,,ahead_schema_3_WHI.jpg,ahead,3,schema,,,,,,,,,,,,,,,,,0,151,151,151,,,,,,,,,,,,,,,a,0.215462641092,2018_Aug_07_1009,None,Arrows_VVA_Direction,1001,Whi,
,,,,,left_schema_11_WHI.jpg,left,11,schema,,,,,,,,,,,,,,,,,0,152,152,152,,,,,,,,,,,,,,,f,0.132505488582,2018_Aug_07_1009,None,Arrows_VVA_Direction,1001,Whi,
,,,,,right_schema_3_WHI.jpg,right,3,schema,,,,,,,,,,,,,,,,,0,153,153,153,,,,,,,,,,,,,,,a,0.188088595169,2018_Aug_07_1009,None,Arrows_VVA_Direction,1001,Whi,
,,,,,right_schema_6_WHI.jpg,right,6,schema,,,,,,,,,,,,,,,,,0,154,154,154,,,,,,,,,,,,,,,f,0.192005858989,2018_Aug_07_1009,None,Arrows_VVA_Direction,1001,Whi,
,,,,,ahead_schema_4_WHI.jpg,ahead,4,schema,,,,,,,,,,,,,,,,,0,155,155,155,,,,,,,,,,,,,,,a,0.144484302262,2018_Aug_07_1009,None,Arrows_VVA_Direction,1001,Whi,
,,,,,ahead_schema_16_WHI.jpg,ahead,16,schema,,,,,,,,,,,,,,,,,0,156,156,156,,,,,,,,,,,,,,,f,0.25463650981,2018_Aug_07_1009,None,Arrows_VVA_Direction,1001,Whi,
,,,,,right_schema_5_WHI.jpg,right,5,schema,,,,,,,,,,,,,,,,,0,157,157,157,,,,,,,,,,,,,,,a,0.130179844331,2018_Aug_07_1009,None,Arrows_VVA_Direction,1001,Whi,
,,,,,ahead_schema_18_WHI.jpg,ahead,18,schema,,,,,,,,,,,,,,,,,0,158,158,158,,,,,,,,,,,,,,,f,0.213946559001,2018_Aug_07_1009,None,Arrows_VVA_Direction,1001,Whi,
,,,,,ahead_schema_12_WHI.jpg,ahead,12,schema,,,,,,,,,,,,,,,,,0,159,159,159,,,,,,,,,,,,,,,a,0.12615625374,2018_Aug_07_1009,None,Arrows_VVA_Direction,1001,Whi,
,,,,,left_word_12_WHI.jpg,left,12,word,,,,,,,,,,,,,,,,,0,160,160,160,,,,,,,,,,,,,,,f,0.312590008369,2018_Aug_07_1009,None,Arrows_VVA_Direction,1001,Whi,
,,,,,right_word_3_WHI.jpg,right,3,word,,,,,,,,,,,,,,,,,0,161,161,161,,,,,,,,,,,,,,,a,0.193434909219,2018_Aug_07_1009,None,Arrows_VVA_Direction,1001,Whi,
,,,,,left_word_7_WHI.jpg,left,7,word,,,,,,,,,,,,,,,,,0,162,162,162,,,,,,,,,,,,,,,f,0.0319670394529,2018_Aug_07_1009,None,Arrows_VVA_Direction,1001,Whi,
,,,,,ahead_word_5_WHI.jpg,ahead,5,word,,,,,,,,,,,,,,,,,0,163,163,163,,,,,,,,,,,,,,,a,0.23400416458,2018_Aug_07_1009,None,Arrows_VVA_Direction,1001,Whi,
,,,,,right_word_7_WHI.jpg,right,7,word,,,,,,,,,,,,,,,,,0,164,164,164,,,,,,,,,,,,,,,f,0.217807990965,2018_Aug_07_1009,None,Arrows_VVA_Direction,1001,Whi,
,,,,,right_word_17_WHI.jpg,right,17,word,,,,,,,,,,,,,,,,,0,165,165,165,,,,,,,,,,,,,,,a,0.119080793578,2018_Aug_07_1009,None,Arrows_VVA_Direction,1001,Whi,
,,,,,ahead_word_4_WHI.jpg,ahead,4,word,,,,,,,,,,,,,,,,,0,166,166,166,,,,,,,,,,,,,,,f,0.200071924599,2018_Aug_07_1009,None,Arrows_VVA_Direction,1001,Whi,
,,,,,left_word_20_WHI.jpg,left,20,word,,,,,,,,,,,,,,,,,0,167,167,167,,,,,,,,,,,,,,,a,0.170540140709,2018_Aug_07_1009,None,Arrows_VVA_Direction,1001,Whi,
,,,,,left_word_18_WHI.jpg,left,18,word,,,,,,,,,,,,,,,,,0,168,168,168,,,,,,,,,,,,,,,f,0.266093951883,2018_Aug_07_1009,None,Arrows_VVA_Direction,1001,Whi,
,,,,,ahead_word_11_WHI.jpg,ahead,11,word,,,,,,,,,,,,,,,,,0,169,169,169,,,,,,,,,,,,,,,a,0.0649049791973,2018_Aug_07_1009,None,Arrows_VVA_Direction,1001,Whi,
,,,,,left_word_14_WHI.jpg,left,14,word,,,,,,,,,,,,,,,,,0,170,170,170,,,,,,,,,,,,,,,f,0.305952582275,2018_Aug_07_1009,None,Arrows_VVA_Direction,1001,Whi,
,,,,,right_word_9_WHI.jpg,right,9,word,,,,,,,,,,,,,,,,,0,171,171,171,,,,,,,,,,,,,,,a,0.0257668262348,2018_Aug_07_1009,None,Arrows_VVA_Direction,1001,Whi,
,,,,,left_word_8_WHI.jpg,left,8,word,,,,,,,,,,,,,,,,,0,172,172,172,,,,,,,,,,,,,,,f,0.214639941929,2018_Aug_07_1009,None,Arrows_VVA_Direction,1001,Whi,
,,,,,ahead_word_9_WHI.jpg,ahead,9,word,,,,,,,,,,,,,,,,,0,173,173,173,,,,,,,,,,,,,,,a,0.00156370317563,2018_Aug_07_1009,None,Arrows_VVA_Direction,1001,Whi,
,,,,,left_word_2_WHI.jpg,left,2,word,,,,,,,,,,,,,,,,,0,174,174,174,,,,,,,,,,,,,,,f,0.171372282086,2018_Aug_07_1009,None,Arrows_VVA_Direction,1001,Whi,
,,,,,right_word_15_WHI.jpg,right,15,word,,,,,,,,,,,,,,,,,0,175,175,175,,,,,,,,,,,,,,,a,0.240182209061,2018_Aug_07_1009,None,Arrows_VVA_Direction,1001,Whi,
,,,,,ahead_word_10_WHI.jpg,ahead,10,word,,,,,,,,,,,,,,,,,0,176,176,176,,,,,,,,,,,,,,,f,0.0931095241103,2018_Aug_07_1009,None,Arrows_VVA_Direction,1001,Whi,
,,,,,right_word_6_WHI.jpg,right,6,word,,,,,,,,,,,,,,,,,0,177,177,177,,,,,,,,,,,,,,,a,0.144350880524,2018_Aug_07_1009,None,Arrows_VVA_Direction,1001,Whi,
,,,,,ahead_word_1_WHI.jpg,ahead,1,word,,,,,,,,,,,,,,,,,0,178,178,178,,,,,,,,,,,,,,,f,0.171158807119,2018_Aug_07_1009,None,Arrows_VVA_Direction,1001,Whi,
,,,,,ahead_word_17_WHI.jpg,ahead,17,word,,,,,,,,,,,,,,,,,0,179,179,179,,,,,,,,,,,,,,,a,0.138476216467,2018_Aug_07_1009,None,Arrows_VVA_Direction,1001,Whi,
,,,,,right_word_11_WHI.jpg,right,11,word,,,,,,,,,,,,,,,,,0,180,180,180,,,,,,,,,,,,,,,f,0.384090539534,2018_Aug_07_1009,None,Arrows_VVA_Direction,1001,Whi,
,,,,,right_word_21_WHI.jpg,right,21,word,,,,,,,,,,,,,,,,,0,181,181,181,,,,,,,,,,,,,,,a,0.250720477663,2018_Aug_07_1009,None,Arrows_VVA_Direction,1001,Whi,
,,,,,ahead_word_14_WHI.jpg,ahead,14,word,,,,,,,,,,,,,,,,,0,182,182,182,,,,,,,,,,,,,,,f,0.285539048724,2018_Aug_07_1009,None,Arrows_VVA_Direction,1001,Whi,
,,,,,left_word_14_WHI.jpg,left,14,word,,,,,,,,,,,,,,,,,0,183,183,183,,,,,,,,,,,,,,,a,0.187035999959,2018_Aug_07_1009,None,Arrows_VVA_Direction,1001,Whi,
,,,,,left_word_21_WHI.jpg,left,21,word,,,,,,,,,,,,,,,,,0,184,184,184,,,,,,,,,,,,,,,f,0.183268168941,2018_Aug_07_1009,None,Arrows_VVA_Direction,1001,Whi,
,,,,,left_word_11_WHI.jpg,left,11,word,,,,,,,,,,,,,,,,,0,185,185,185,,,,,,,,,,,,,,,a,0.188943315763,2018_Aug_07_1009,None,Arrows_VVA_Direction,1001,Whi,
,,,,,ahead_word_4_WHI.jpg,ahead,4,word,,,,,,,,,,,,,,,,,0,186,186,186,,,,,,,,,,,,,,,f,0.152720326558,2018_Aug_07_1009,None,Arrows_VVA_Direction,1001,Whi,
,,,,,right_word_19_WHI.jpg,right,19,word,,,,,,,,,,,,,,,,,0,187,187,187,,,,,,,,,,,,,,,a,0.19500066503,2018_Aug_07_1009,None,Arrows_VVA_Direction,1001,Whi,
,,,,,left_word_7_WHI.jpg,left,7,word,,,,,,,,,,,,,,,,,0,188,188,188,,,,,,,,,,,,,,,f,0.16348192282,2018_Aug_07_1009,None,Arrows_VVA_Direction,1001,Whi,
,,,,,ahead_word_7_WHI.jpg,ahead,7,word,,,,,,,,,,,,,,,,,0,189,189,189,,,,,,,,,,,,,,,a,0.0535259479657,2018_Aug_07_1009,None,Arrows_VVA_Direction,1001,Whi,
,,,,,left_word_5_WHI.jpg,left,5,word,,,,,,,,,,,,,,,,,0,190,190,190,,,,,,,,,,,,,,,f,0.15497987601,2018_Aug_07_1009,None,Arrows_VVA_Direction,1001,Whi,
,,,,,ahead_word_9_WHI.jpg,ahead,9,word,,,,,,,,,,,,,,,,,0,191,191,191,,,,,,,,,,,,,,,a,0.105180295883,2018_Aug_07_1009,None,Arrows_VVA_Direction,1001,Whi,
,,,,,right_word_14_WHI.jpg,right,14,word,,,,,,,,,,,,,,,,,0,192,192,192,,,,,,,,,,,,,,,f,0.178365225904,2018_Aug_07_1009,None,Arrows_VVA_Direction,1001,Whi,
,,,,,left_word_1_WHI.jpg,left,1,word,,,,,,,,,,,,,,,,,0,193,193,193,,,,,,,,,,,,,,,a,0.132080591749,2018_Aug_07_1009,None,Arrows_VVA_Direction,1001,Whi,
,,,,,ahead_word_3_WHI.jpg,ahead,3,word,,,,,,,,,,,,,,,,,0,194,194,194,,,,,,,,,,,,,,,f,0.203610270284,2018_Aug_07_1009,None,Arrows_VVA_Direction,1001,Whi,
,,,,,ahead_word_2_WHI.jpg,ahead,2,word,,,,,,,,,,,,,,,,,0,195,195,195,,,,,,,,,,,,,,,a,0.051391199464,2018_Aug_07_1009,None,Arrows_VVA_Direction,1001,Whi,
,,,,,right_word_1_WHI.jpg,right,1,word,,,,,,,,,,,,,,,,,0,196,196,196,,,,,,,,,,,,,,,f,0.193392214132,2018_Aug_07_1009,None,Arrows_VVA_Direction,1001,Whi,
,,,,,left_word_6_WHI.jpg,left,6,word,,,,,,,,,,,,,,,,,0,197,197,197,,,,,,,,,,,,,,,a,0.109572130721,2018_Aug_07_1009,None,Arrows_VVA_Direction,1001,Whi,
,,,,,ahead_word_17_WHI.jpg,ahead,17,word,,,,,,,,,,,,,,,,,0,198,198,198,,,,,,,,,,,,,,,f,0.164677381981,2018_Aug_07_1009,None,Arrows_VVA_Direction,1001,Whi,
,,,,,right_word_2_WHI.jpg,right,2,word,,,,,,,,,,,,,,,,,0,199,199,199,,,,,,,,,,,,,,,a,0.237957144156,2018_Aug_07_1009,None,Arrows_VVA_Direction,1001,Whi,
,,,,,right_schema_2_WHI.jpg,right,2,schema,,,,,,,,,,,,,,,,,0,200,200,200,,,,,,,,,,,,,,,f,0.786960709142,2018_Aug_07_1009,None,Arrows_VVA_Direction,1001,Whi,
,,,,,left_schema_1_WHI.jpg,left,1,schema,,,,,,,,,,,,,,,,,0,201,201,201,,,,,,,,,,,,,,,a,0.237168929307,2018_Aug_07_1009,None,Arrows_VVA_Direction,1001,Whi,
,,,,,right_schema_8_WHI.jpg,right,8,schema,,,,,,,,,,,,,,,,,0,202,202,202,,,,,,,,,,,,,,,f,0.125084774103,2018_Aug_07_1009,None,Arrows_VVA_Direction,1001,Whi,
,,,,,ahead_schema_20_WHI.jpg,ahead,20,schema,,,,,,,,,,,,,,,,,0,203,203,203,,,,,,,,,,,,,,,a,0.0945886585396,2018_Aug_07_1009,None,Arrows_VVA_Direction,1001,Whi,
,,,,,ahead_schema_14_WHI.jpg,ahead,14,schema,,,,,,,,,,,,,,,,,0,204,204,204,,,,,,,,,,,,,,,f,0.0810732366517,2018_Aug_07_1009,None,Arrows_VVA_Direction,1001,Whi,
,,,,,left_schema_14_WHI.jpg,left,14,schema,,,,,,,,,,,,,,,,,0,205,205,205,,,,,,,,,,,,,,,a,0.102186721517,2018_Aug_07_1009,None,Arrows_VVA_Direction,1001,Whi,
,,,,,left_schema_20_WHI.jpg,left,20,schema,,,,,,,,,,,,,,,,,0,206,206,206,,,,,,,,,,,,,,,f,0.000919583952054,2018_Aug_07_1009,None,Arrows_VVA_Direction,1001,Whi,
,,,,,left_schema_5_WHI.jpg,left,5,schema,,,,,,,,,,,,,,,,,0,207,207,207,,,,,,,,,,,,,,,a,0.0211336007342,2018_Aug_07_1009,None,Arrows_VVA_Direction,1001,Whi,
,,,,,right_schema_14_WHI.jpg,right,14,schema,,,,,,,,,,,,,,,,,0,208,208,208,,,,,,,,,,,,,,,f,0.0532730622217,2018_Aug_07_1009,None,Arrows_VVA_Direction,1001,Whi,
,,,,,right_schema_16_WHI.jpg,right,16,schema,,,,,,,,,,,,,,,,,0,209,209,209,,,,,,,,,,,,,,,a,0.0874647560995,2018_Aug_07_1009,None,Arrows_VVA_Direction,1001,Whi,
,,,,,ahead_schema_8_WHI.jpg,ahead,8,schema,,,,,,,,,,,,,,,,,0,210,210,210,,,,,,,,,,,,,,,f,0.0216184349265,2018_Aug_07_1009,None,Arrows_VVA_Direction,1001,Whi,
,,,,,left_schema_18_WHI.jpg,left,18,schema,,,,,,,,,,,,,,,,,0,211,211,211,,,,,,,,,,,,,,,a,0.0630498004612,2018_Aug_07_1009,None,Arrows_VVA_Direction,1001,Whi,
,,,,,right_schema_9_WHI.jpg,right,9,schema,,,,,,,,,,,,,,,,,0,212,212,212,,,,,,,,,,,,,,,f,0.0628330411855,2018_Aug_07_1009,None,Arrows_VVA_Direction,1001,Whi,
,,,,,ahead_schema_5_WHI.jpg,ahead,5,schema,,,,,,,,,,,,,,,,,0,213,213,213,,,,,,,,,,,,,,,a,0.0324756845366,2018_Aug_07_1009,None,Arrows_VVA_Direction,1001,Whi,
,,,,,right_schema_19_WHI.jpg,right,19,schema,,,,,,,,,,,,,,,,,0,214,214,214,,,,,,,,,,,,,,,f,0.0845524664037,2018_Aug_07_1009,None,Arrows_VVA_Direction,1001,Whi,
,,,,,ahead_schema_1_WHI.jpg,ahead,1,schema,,,,,,,,,,,,,,,,,0,215,215,215,,,,,,,,,,,,,,,a,0.0572900844272,2018_Aug_07_1009,None,Arrows_VVA_Direction,1001,Whi,
,,,,,ahead_schema_4_WHI.jpg,ahead,4,schema,,,,,,,,,,,,,,,,,0,216,216,216,,,,,,,,,,,,,,,f,0.000754551496357,2018_Aug_07_1009,None,Arrows_VVA_Direction,1001,Whi,
,,,,,left_schema_4_WHI.jpg,left,4,schema,,,,,,,,,,,,,,,,,0,217,217,217,,,,,,,,,,,,,,,a,0.0799056934193,2018_Aug_07_1009,None,Arrows_VVA_Direction,1001,Whi,
,,,,,left_schema_6_WHI.jpg,left,6,schema,,,,,,,,,,,,,,,,,0,218,218,218,,,,,,,,,,,,,,,f,0.0412983540446,2018_Aug_07_1009,None,Arrows_VVA_Direction,1001,Whi,
,,,,,right_schema_1_WHI.jpg,right,1,schema,,,,,,,,,,,,,,,,,0,219,219,219,,,,,,,,,,,,,,,a,0.0642912387848,2018_Aug_07_1009,None,Arrows_VVA_Direction,1001,Whi,
,,,,,left_image_13_WHI.jpg,left,13,image,,,,,,,,,,,,,,,,,0,220,220,220,,,,,,,,,,,,,,,f,0.343900612788,2018_Aug_07_1009,None,Arrows_VVA_Direction,1001,Whi,
,,,,,left_image_7_WHI.jpg,left,7,image,,,,,,,,,,,,,,,,,0,221,221,221,,,,,,,,,,,,,,,a,0.0316599642392,2018_Aug_07_1009,None,Arrows_VVA_Direction,1001,Whi,
,,,,,ahead_image_13_WHI.jpg,ahead,13,image,,,,,,,,,,,,,,,,,0,222,222,222,,,,,,,,,,,,,,,f,0.0317355012521,2018_Aug_07_1009,None,Arrows_VVA_Direction,1001,Whi,
,,,,,right_image_12_WHI.jpg,right,12,image,,,,,,,,,,,,,,,,,0,223,223,223,,,,,,,,,,,,,,,a,0.00095776328817,2018_Aug_07_1009,None,Arrows_VVA_Direction,1001,Whi,
,,,,,ahead_image_5_WHI.jpg,ahead,5,image,,,,,,,,,,,,,,,,,0,224,224,224,,,,,,,,,,,,,,,f,0.000723351491615,2018_Aug_07_1009,None,Arrows_VVA_Direction,1001,Whi,
,,,,,ahead_image_4_WHI.jpg,ahead,4,image,,,,,,,,,,,,,,,,,0,225,225,225,,,,,,,,,,,,,,,a,0.0676534681115,2018_Aug_07_1009,None,Arrows_VVA_Direction,1001,Whi,
,,,,,ahead_image_14_WHI.jpg,ahead,14,image,,,,,,,,,,,,,,,,,0,226,226,226,,,,,,,,,,,,,,,f,0.000926563050598,2018_Aug_07_1009,None,Arrows_VVA_Direction,1001,Whi,
,,,,,right_image_9_WHI.jpg,right,9,image,,,,,,,,,,,,,,,,,0,227,227,227,,,,,,,,,,,,,,,f,0.00227268622257,2018_Aug_07_1009,None,Arrows_VVA_Direction,1001,Whi,
,,,,,right_image_20_WHI.jpg,right,20,image,,,,,,,,,,,,,,,,,0,228,228,228,,,,,,,,,,,,,,,a,0.000634266529232,2018_Aug_07_1009,None,Arrows_VVA_Direction,1001,Whi,
,,,,,left_image_21_WHI.jpg,left,21,image,,,,,,,,,,,,,,,,,0,229,229,229,,,,,,,,,,,,,,,f,0.0486098681577,2018_Aug_07_1009,None,Arrows_VVA_Direction,1001,Whi,
,,,,,ahead_image_3_WHI.jpg,ahead,3,image,,,,,,,,,,,,,,,,,0,230,230,230,,,,,,,,,,,,,,,a,0.0324691159185,2018_Aug_07_1009,None,Arrows_VVA_Direction,1001,Whi,
,,,,,right_image_21_WHI.jpg,right,21,image,,,,,,,,,,,,,,,,,0,231,231,231,,,,,,,,,,,,,,,f,0.000901110237464,2018_Aug_07_1009,None,Arrows_VVA_Direction,1001,Whi,
,,,,,ahead_image_21_WHI.jpg,ahead,21,image,,,,,,,,,,,,,,,,,0,232,232,232,,,,,,,,,,,,,,,a,0.00226447568275,2018_Aug_07_1009,None,Arrows_VVA_Direction,1001,Whi,
,,,,,left_image_10_WHI.jpg,left,10,image,,,,,,,,,,,,,,,,,0,233,233,233,,,,,,,,,,,,,,,f,0.00122583820485,2018_Aug_07_1009,None,Arrows_VVA_Direction,1001,Whi,
,,,,,right_image_4_WHI.jpg,right,4,image,,,,,,,,,,,,,,,,,0,234,234,234,,,,,,,,,,,,,,,a,0.0668217369821,2018_Aug_07_1009,None,Arrows_VVA_Direction,1001,Whi,
,,,,,right_image_17_WHI.jpg,right,17,image,,,,,,,,,,,,,,,,,0,235,235,235,,,,,,,,,,,,,,,f,0.0312022245489,2018_Aug_07_1009,None,Arrows_VVA_Direction,1001,Whi,
,,,,,left_image_2_WHI.jpg,left,2,image,,,,,,,,,,,,,,,,,0,236,236,236,,,,,,,,,,,,,,,a,0.0201429952867,2018_Aug_07_1009,None,Arrows_VVA_Direction,1001,Whi,
,,,,,left_image_14_WHI.jpg,left,14,image,,,,,,,,,,,,,,,,,0,237,237,237,,,,,,,,,,,,,,,f,0.0412577118259,2018_Aug_07_1009,None,Arrows_VVA_Direction,1001,Whi,
,,,,,left_image_4_WHI.jpg,left,4,image,,,,,,,,,,,,,,,,,0,238,238,238,,,,,,,,,,,,,,,a,0.0401821269188,2018_Aug_07_1009,None,Arrows_VVA_Direction,1001,Whi,
,,,,,right_image_11_WHI.jpg,right,11,image,,,,,,,,,,,,,,,,,0,239,239,239,,,,,,,,,,,,,,,f,0.0341001460329,2018_Aug_07_1009,None,Arrows_VVA_Direction,1001,Whi,
,,,,,ahead_image_2_WHI.jpg,ahead,2,image,,,,,,,,,,,,,,,,,0,240,240,240,,,,,,,,,,,,,,,f,0.319684352726,2018_Aug_07_1009,None,Arrows_VVA_Direction,1001,Whi,
,,,,,left_image_1_WHI.jpg,left,1,image,,,,,,,,,,,,,,,,,0,241,241,241,,,,,,,,,,,,,,,a,0.094404741656,2018_Aug_07_1009,None,Arrows_VVA_Direction,1001,Whi,
,,,,,left_image_11_WHI.jpg,left,11,image,,,,,,,,,,,,,,,,,0,242,242,242,,,,,,,,,,,,,,,f,0.0434922189452,2018_Aug_07_1009,None,Arrows_VVA_Direction,1001,Whi,
,,,,,right_image_8_WHI.jpg,right,8,image,,,,,,,,,,,,,,,,,0,243,243,243,,,,,,,,,,,,,,,a,0.0433382706251,2018_Aug_07_1009,None,Arrows_VVA_Direction,1001,Whi,
,,,,,right_image_18_WHI.jpg,right,18,image,,,,,,,,,,,,,,,,,0,244,244,244,,,,,,,,,,,,,,,f,0.0518789070193,2018_Aug_07_1009,None,Arrows_VVA_Direction,1001,Whi,
,,,,,ahead_image_15_WHI.jpg,ahead,15,image,,,,,,,,,,,,,,,,,0,245,245,245,,,,,,,,,,,,,,,a,0.0586842396297,2018_Aug_07_1009,None,Arrows_VVA_Direction,1001,Whi,
,,,,,left_image_18_WHI.jpg,left,18,image,,,,,,,,,,,,,,,,,0,246,246,246,,,,,,,,,,,,,,,f,0.0222559859976,2018_Aug_07_1009,None,Arrows_VVA_Direction,1001,Whi,
,,,,,left_image_5_WHI.jpg,left,5,image,,,,,,,,,,,,,,,,,0,247,247,247,,,,,,,,,,,,,,,a,0.0530062187463,2018_Aug_07_1009,None,Arrows_VVA_Direction,1001,Whi,
,,,,,right_image_2_WHI.jpg,right,2,image,,,,,,,,,,,,,,,,,0,248,248,248,,,,,,,,,,,,,,,f,0.0312338354997,2018_Aug_07_1009,None,Arrows_VVA_Direction,1001,Whi,
,,,,,ahead_image_16_WHI.jpg,ahead,16,image,,,,,,,,,,,,,,,,,0,249,249,249,,,,,,,,,,,,,,,a,0.00134448101744,2018_Aug_07_1009,None,Arrows_VVA_Direction,1001,Whi,
,,,,,ahead_image_9_WHI.jpg,ahead,9,image,,,,,,,,,,,,,,,,,0,250,250,250,,,,,,,,,,,,,,,f,0.000979110598564,2018_Aug_07_1009,None,Arrows_VVA_Direction,1001,Whi,
,,,,,ahead_image_18_WHI.jpg,ahead,18,image,,,,,,,,,,,,,,,,,0,251,251,251,,,,,,,,,,,,,,,a,0.0208749677986,2018_Aug_07_1009,None,Arrows_VVA_Direction,1001,Whi,
,,,,,left_image_3_WHI.jpg,left,3,image,,,,,,,,,,,,,,,,,0,252,252,252,,,,,,,,,,,,,,,f,0.08959416789,2018_Aug_07_1009,None,Arrows_VVA_Direction,1001,Whi,
,,,,,left_image_9_WHI.jpg,left,9,image,,,,,,,,,,,,,,,,,0,253,253,253,,,,,,,,,,,,,,,a,0.108306060545,2018_Aug_07_1009,None,Arrows_VVA_Direction,1001,Whi,
,,,,,right_image_3_WHI.jpg,right,3,image,,,,,,,,,,,,,,,,,0,254,254,254,,,,,,,,,,,,,,,f,0.0206327559426,2018_Aug_07_1009,None,Arrows_VVA_Direction,1001,Whi,
,,,,,ahead_image_10_WHI.jpg,ahead,10,image,,,,,,,,,,,,,,,,,0,255,255,255,,,,,,,,,,,,,,,a,0.0825359500013,2018_Aug_07_1009,None,Arrows_VVA_Direction,1001,Whi,
,,,,,right_image_13_WHI.jpg,right,13,image,,,,,,,,,,,,,,,,,0,256,256,256,,,,,,,,,,,,,,,f,0.0285473363474,2018_Aug_07_1009,None,Arrows_VVA_Direction,1001,Whi,
,,,,,right_image_19_WHI.jpg,right,19,image,,,,,,,,,,,,,,,,,0,257,257,257,,,,,,,,,,,,,,,f,0.134021570906,2018_Aug_07_1009,None,Arrows_VVA_Direction,1001,Whi,
,,,,,right_image_14_WHI.jpg,right,14,image,,,,,,,,,,,,,,,,,0,258,258,258,,,,,,,,,,,,,,,a,0.0583829113748,2018_Aug_07_1009,None,Arrows_VVA_Direction,1001,Whi,
,,,,,ahead_image_11_WHI.jpg,ahead,11,image,,,,,,,,,,,,,,,,,0,259,259,259,,,,,,,,,,,,,,,f,0.0647502096836,2018_Aug_07_1009,None,Arrows_VVA_Direction,1001,Whi,
,,,,,right_word_9_WHI.jpg,right,9,word,,,,,,,,,,,,,,,,,0,260,260,260,,,,,,,,,,,,,,,f,0.505084807053,2018_Aug_07_1009,None,Arrows_VVA_Direction,1001,Whi,
,,,,,left_word_17_WHI.jpg,left,17,word,,,,,,,,,,,,,,,,,0,261,261,261,,,,,,,,,,,,,,,f,0.328046409413,2018_Aug_07_1009,None,Arrows_VVA_Direction,1001,Whi,
,,,,,ahead_word_8_WHI.jpg,ahead,8,word,,,,,,,,,,,,,,,,,0,262,262,262,,,,,,,,,,,,,,,a,0.168136906344,2018_Aug_07_1009,None,Arrows_VVA_Direction,1001,Whi,
,,,,,left_word_4_WHI.jpg,left,4,word,,,,,,,,,,,,,,,,,0,263,263,263,,,,,,,,,,,,,,,a,0.0956543907523,2018_Aug_07_1009,None,Arrows_VVA_Direction,1001,Whi,
,,,,,left_word_8_WHI.jpg,left,8,word,,,,,,,,,,,,,,,,,0,264,264,264,,,,,,,,,,,,,,,f,0.0410820054822,2018_Aug_07_1009,None,Arrows_VVA_Direction,1001,Whi,
,,,,,right_word_8_WHI.jpg,right,8,word,,,,,,,,,,,,,,,,,0,265,265,265,,,,,,,,,,,,,,,a,0.087222954724,2018_Aug_07_1009,None,Arrows_VVA_Direction,1001,Whi,
,,,,,ahead_word_12_WHI.jpg,ahead,12,word,,,,,,,,,,,,,,,,,0,266,266,266,,,,,,,,,,,,,,,a,0.204075809801,2018_Aug_07_1009,None,Arrows_VVA_Direction,1001,Whi,
,,,,,left_word_16_WHI.jpg,left,16,word,,,,,,,,,,,,,,,,,0,267,267,267,,,,,,,,,,,,,,,a,0.131554294145,2018_Aug_07_1009,None,Arrows_VVA_Direction,1001,Whi,
,,,,,right_word_18_WHI.jpg,right,18,word,,,,,,,,,,,,,,,,,0,268,268,268,,,,,,,,,,,,,,,f,0.10538186552,2018_Aug_07_1009,None,Arrows_VVA_Direction,1001,Whi,
,,,,,left_word_9_WHI.jpg,left,9,word,,,,,,,,,,,,,,,,,0,269,269,269,,,,,,,,,,,,,,,a,0.000522602815181,2018_Aug_07_1009,None,Arrows_VVA_Direction,1001,Whi,
,,,,,ahead_word_11_WHI.jpg,ahead,11,word,,,,,,,,,,,,,,,,,0,270,270,270,,,,,,,,,,,,,,,f,0.0337039858568,2018_Aug_07_1009,None,Arrows_VVA_Direction,1001,Whi,
,,,,,left_word_12_WHI.jpg,left,12,word,,,,,,,,,,,,,,,,,0,271,271,271,,,,,,,,,,,,,,,a,0.0886819732841,2018_Aug_07_1009,None,Arrows_VVA_Direction,1001,Whi,
,,,,,left_word_2_WHI.jpg,left,2,word,,,,,,,,,,,,,,,,,0,272,272,272,,,,,,,,,,,,,,,f,0.0631741904654,2018_Aug_07_1009,None,Arrows_VVA_Direction,1001,Whi,
,,,,,right_word_6_WHI.jpg,right,6,word,,,,,,,,,,,,,,,,,0,273,273,273,,,,,,,,,,,,,,,a,0.0631421692669,2018_Aug_07_1009,None,Arrows_VVA_Direction,1001,Whi,
,,,,,ahead_word_15_WHI.jpg,ahead,15,word,,,,,,,,,,,,,,,,,0,274,274,274,,,,,,,,,,,,,,,f,0.0873871662188,2018_Aug_07_1009,None,Arrows_VVA_Direction,1001,Whi,
,,,,,ahead_word_19_WHI.jpg,ahead,19,word,,,,,,,,,,,,,,,,,0,275,275,275,,,,,,,,,,,,,,,a,0.00160434562713,2018_Aug_07_1009,None,Arrows_VVA_Direction,1001,Whi,
,,,,,ahead_word_20_WHI.jpg,ahead,20,word,,,,,,,,,,,,,,,,,0,276,276,276,,,,,,,,,,,,,,,f,0.0440694219433,2018_Aug_07_1009,None,Arrows_VVA_Direction,1001,Whi,
,,,,,ahead_word_13_WHI.jpg,ahead,13,word,,,,,,,,,,,,,,,,,0,277,277,277,,,,,,,,,,,,,,,a,0.12206492573,2018_Aug_07_1009,None,Arrows_VVA_Direction,1001,Whi,
,,,,,right_word_4_WHI.jpg,right,4,word,,,,,,,,,,,,,,,,,0,278,278,278,,,,,,,,,,,,,,,f,0.0010283740703,2018_Aug_07_1009,None,Arrows_VVA_Direction,1001,Whi,
,,,,,right_word_20_WHI.jpg,right,20,word,,,,,,,,,,,,,,,,,0,279,279,279,,,,,,,,,,,,,,,a,0.0414720075205,2018_Aug_07_1009,None,Arrows_VVA_Direction,1001,Whi,
,,,,,ahead_schema_7_WHI.jpg,ahead,7,schema,,,,,,,,,,,,,,,,,0,280,280,280,,,,,,,,,,,,,,,f,0.450715633342,2018_Aug_07_1009,None,Arrows_VVA_Direction,1001,Whi,
,,,,,ahead_schema_6_WHI.jpg,ahead,6,schema,,,,,,,,,,,,,,,,,0,281,281,281,,,,,,,,,,,,,,,a,0.152910401346,2018_Aug_07_1009,None,Arrows_VVA_Direction,1001,Whi,
,,,,,left_schema_13_WHI.jpg,left,13,schema,,,,,,,,,,,,,,,,,0,282,282,282,,,,,,,,,,,,,,,f,0.0411723218858,2018_Aug_07_1009,None,Arrows_VVA_Direction,1001,Whi,
,,,,,right_schema_15_WHI.jpg,right,15,schema,,,,,,,,,,,,,,,,,0,283,283,283,,,,,,,,,,,,,,,a,0.001578892814,2018_Aug_07_1009,None,Arrows_VVA_Direction,1001,Whi,
,,,,,ahead_schema_16_WHI.jpg,ahead,16,schema,,,,,,,,,,,,,,,,,0,284,284,284,,,,,,,,,,,,,,,f,0.0385162017774,2018_Aug_07_1009,None,Arrows_VVA_Direction,1001,Whi,
,,,,,right_schema_21_WHI.jpg,right,21,schema,,,,,,,,,,,,,,,,,0,285,285,285,,,,,,,,,,,,,,,a,0.0740014712792,2018_Aug_07_1009,None,Arrows_VVA_Direction,1001,Whi,
,,,,,left_schema_10_WHI.jpg,left,10,schema,,,,,,,,,,,,,,,,,0,286,286,286,,,,,,,,,,,,,,,f,0.0634980977047,2018_Aug_07_1009,None,Arrows_VVA_Direction,1001,Whi,
,,,,,left_schema_17_WHI.jpg,left,17,schema,,,,,,,,,,,,,,,,,0,287,287,287,,,,,,,,,,,,,,,a,0.0321677881293,2018_Aug_07_1009,None,Arrows_VVA_Direction,1001,Whi,
,,,,,ahead_schema_21_WHI.jpg,ahead,21,schema,,,,,,,,,,,,,,,,,0,288,288,288,,,,,,,,,,,,,,,f,0.0877882526256,2018_Aug_07_1009,None,Arrows_VVA_Direction,1001,Whi,
,,,,,left_schema_15_WHI.jpg,left,15,schema,,,,,,,,,,,,,,,,,0,289,289,289,,,,,,,,,,,,,,,a,0.0588312086184,2018_Aug_07_1009,None,Arrows_VVA_Direction,1001,Whi,
,,,,,right_schema_4_WHI.jpg,right,4,schema,,,,,,,,,,,,,,,,,0,290,290,290,,,,,,,,,,,,,,,f,0.106645472348,2018_Aug_07_1009,None,Arrows_VVA_Direction,1001,Whi,
,,,,,left_schema_9_WHI.jpg,left,9,schema,,,,,,,,,,,,,,,,,0,291,291,291,,,,,,,,,,,,,,,a,0.000557497842237,2018_Aug_07_1009,None,Arrows_VVA_Direction,1001,Whi,
,,,,,left_schema_16_WHI.jpg,left,16,schema,,,,,,,,,,,,,,,,,0,292,292,292,,,,,,,,,,,,,,,f,0.0591596316081,2018_Aug_07_1009,None,Arrows_VVA_Direction,1001,Whi,
,,,,,right_schema_11_WHI.jpg,right,11,schema,,,,,,,,,,,,,,,,,0,293,293,293,,,,,,,,,,,,,,,a,0.0744009155314,2018_Aug_07_1009,None,Arrows_VVA_Direction,1001,Whi,
,,,,,left_schema_8_WHI.jpg,left,8,schema,,,,,,,,,,,,,,,,,0,294,294,294,,,,,,,,,,,,,,,f,0.0631709063891,2018_Aug_07_1009,None,Arrows_VVA_Direction,1001,Whi,
,,,,,right_schema_5_WHI.jpg,right,5,schema,,,,,,,,,,,,,,,,,0,295,295,295,,,,,,,,,,,,,,,a,0.0317736805882,2018_Aug_07_1009,None,Arrows_VVA_Direction,1001,Whi,
,,,,,ahead_schema_19_WHI.jpg,ahead,19,schema,,,,,,,,,,,,,,,,,0,296,296,296,,,,,,,,,,,,,,,f,0.0631602327339,2018_Aug_07_1009,None,Arrows_VVA_Direction,1001,Whi,
,,,,,right_schema_6_WHI.jpg,right,6,schema,,,,,,,,,,,,,,,,,0,297,297,297,,,,,,,,,,,,,,,a,0.0410737949423,2018_Aug_07_1009,None,Arrows_VVA_Direction,1001,Whi,
,,,,,ahead_schema_13_WHI.jpg,ahead,13,schema,,,,,,,,,,,,,,,,,0,298,298,298,,,,,,,,,,,,,,,f,0.0628424833994,2018_Aug_07_1009,None,Arrows_VVA_Direction,1001,Whi,
,,,,,ahead_schema_11_WHI.jpg,ahead,11,schema,,,,,,,,,,,,,,,,,0,299,299,299,,,,,,,,,,,,,,,f,0.13708862965,2018_Aug_07_1009,None,Arrows_VVA_Direction,1001,Whi,
,,,,,right_schema_10_WHI.jpg,right,10,schema,,,,,,,,,,,,,,,,,0,300,300,300,,,,,,,,,,,,,,,f,0.380990227684,2018_Aug_07_1009,None,Arrows_VVA_Direction,1001,Whi,
,,,,,ahead_schema_12_WHI.jpg,ahead,12,schema,,,,,,,,,,,,,,,,,0,301,301,301,,,,,,,,,,,,,,,a,0.257787727052,2018_Aug_07_1009,None,Arrows_VVA_Direction,1001,Whi,
,,,,,right_schema_17_WHI.jpg,right,17,schema,,,,,,,,,,,,,,,,,0,302,302,302,,,,,,,,,,,,,,,f,0.00089905760251,2018_Aug_07_1009,None,Arrows_VVA_Direction,1001,Whi,
,,,,,left_schema_11_WHI.jpg,left,11,schema,,,,,,,,,,,,,,,,,0,303,303,303,,,,,,,,,,,,,,,a,0.0320692611858,2018_Aug_07_1009,None,Arrows_VVA_Direction,1001,Whi,
,,,,,left_schema_12_WHI.jpg,left,12,schema,,,,,,,,,,,,,,,,,0,304,304,304,,,,,,,,,,,,,,,f,0.0640859745909,2018_Aug_07_1009,None,Arrows_VVA_Direction,1001,Whi,
,,,,,left_schema_7_WHI.jpg,left,7,schema,,,,,,,,,,,,,,,,,0,305,305,305,,,,,,,,,,,,,,,a,0.067382108653,2018_Aug_07_1009,None,Arrows_VVA_Direction,1001,Whi,
,,,,,ahead_schema_17_WHI.jpg,ahead,17,schema,,,,,,,,,,,,,,,,,0,306,306,306,,,,,,,,,,,,,,,f,0.066622630693,2018_Aug_07_1009,None,Arrows_VVA_Direction,1001,Whi,
,,,,,left_schema_2_WHI.jpg,left,2,schema,,,,,,,,,,,,,,,,,0,307,307,307,,,,,,,,,,,,,,,a,0.041551650269,2018_Aug_07_1009,None,Arrows_VVA_Direction,1001,Whi,
,,,,,ahead_schema_15_WHI.jpg,ahead,15,schema,,,,,,,,,,,,,,,,,0,308,308,308,,,,,,,,,,,,,,,f,0.00103945843875,2018_Aug_07_1009,None,Arrows_VVA_Direction,1001,Whi,
,,,,,right_schema_20_WHI.jpg,right,20,schema,,,,,,,,,,,,,,,,,0,309,309,309,,,,,,,,,,,,,,,a,0.00115769053809,2018_Aug_07_1009,None,Arrows_VVA_Direction,1001,Whi,
,,,,,ahead_schema_3_WHI.jpg,ahead,3,schema,,,,,,,,,,,,,,,,,0,310,310,310,,,,,,,,,,,,,,,f,0.0439565265551,2018_Aug_07_1009,None,Arrows_VVA_Direction,1001,Whi,
,,,,,left_schema_3_WHI.jpg,left,3,schema,,,,,,,,,,,,,,,,,0,311,311,311,,,,,,,,,,,,,,,a,0.106901642168,2018_Aug_07_1009,None,Arrows_VVA_Direction,1001,Whi,
,,,,,left_schema_19_WHI.jpg,left,19,schema,,,,,,,,,,,,,,,,,0,312,312,312,,,,,,,,,,,,,,,f,0.0014347974211,2018_Aug_07_1009,None,Arrows_VVA_Direction,1001,Whi,
,,,,,ahead_schema_2_WHI.jpg,ahead,2,schema,,,,,,,,,,,,,,,,,0,313,313,313,,,,,,,,,,,,,,,a,0.02191278385,2018_Aug_07_1009,None,Arrows_VVA_Direction,1001,Whi,
,,,,,right_schema_13_WHI.jpg,right,13,schema,,,,,,,,,,,,,,,,,0,314,314,314,,,,,,,,,,,,,,,f,0.0721783137415,2018_Aug_07_1009,None,Arrows_VVA_Direction,1001,Whi,
,,,,,left_schema_21_WHI.jpg,left,21,schema,,,,,,,,,,,,,,,,,0,315,315,315,,,,,,,,,,,,,,,a,0.0319305025041,2018_Aug_07_1009,None,Arrows_VVA_Direction,1001,Whi,
,,,,,right_schema_18_WHI.jpg,right,18,schema,,,,,,,,,,,,,,,,,0,316,316,316,,,,,,,,,,,,,,,f,0.00159285101108,2018_Aug_07_1009,None,Arrows_VVA_Direction,1001,Whi,
,,,,,ahead_schema_18_WHI.jpg,ahead,18,schema,,,,,,,,,,,,,,,,,0,317,317,317,,,,,,,,,,,,,,,a,0.0548987556249,2018_Aug_07_1009,None,Arrows_VVA_Direction,1001,Whi,
,,,,,ahead_schema_9_WHI.jpg,ahead,9,schema,,,,,,,,,,,,,,,,,0,318,318,318,,,,,,,,,,,,,,,f,0.0411895639263,2018_Aug_07_1009,None,Arrows_VVA_Direction,1001,Whi,
,,,,,right_schema_7_WHI.jpg,right,7,schema,,,,,,,,,,,,,,,,,0,319,319,319,,,,,,,,,,,,,,,a,0.0416678299662,2018_Aug_07_1009,None,Arrows_VVA_Direction,1001,Whi,
,,,,,right_word_12_WHI.jpg,right,12,word,,,,,,,,,,,,,,,,,0,320,320,320,,,,,,,,,,,,,,,f,0.472465027124,2018_Aug_07_1009,None,Arrows_VVA_Direction,1001,Whi,
,,,,,left_word_13_WHI.jpg,left,13,word,,,,,,,,,,,,,,,,,0,321,321,321,,,,,,,,,,,,,,,f,0.163552533835,2018_Aug_07_1009,None,Arrows_VVA_Direction,1001,Whi,
,,,,,right_word_3_WHI.jpg,right,3,word,,,,,,,,,,,,,,,,,0,322,322,322,,,,,,,,,,,,,,,f,0.114730832865,2018_Aug_07_1009,None,Arrows_VVA_Direction,1001,Whi,
,,,,,left_word_18_WHI.jpg,left,18,word,,,,,,,,,,,,,,,,,0,323,323,323,,,,,,,,,,,,,,,f,0.06188348867,2018_Aug_07_1009,None,Arrows_VVA_Direction,1001,Whi,
,,,,,left_word_15_WHI.jpg,left,15,word,,,,,,,,,,,,,,,,,0,324,324,324,,,,,,,,,,,,,,,a,0.091096292017,2018_Aug_07_1009,None,Arrows_VVA_Direction,1001,Whi,
,,,,,left_word_3_WHI.jpg,left,3,word,,,,,,,,,,,,,,,,,0,325,325,325,,,,,,,,,,,,,,,a,0.140319900354,2018_Aug_07_1009,None,Arrows_VVA_Direction,1001,Whi,
,,,,,ahead_word_1_WHI.jpg,ahead,1,word,,,,,,,,,,,,,,,,,0,326,326,326,,,,,,,,,,,,,,,f,0.0637497515418,2018_Aug_07_1009,None,Arrows_VVA_Direction,1001,Whi,
,,,,,right_word_7_WHI.jpg,right,7,word,,,,,,,,,,,,,,,,,0,327,327,327,,,,,,,,,,,,,,,a,0.0694565093145,2018_Aug_07_1009,None,Arrows_VVA_Direction,1001,Whi,
,,,,,ahead_word_16_WHI.jpg,ahead,16,word,,,,,,,,,,,,,,,,,0,328,328,328,,,,,,,,,,,,,,,f,0.0629085786641,2018_Aug_07_1009,None,Arrows_VVA_Direction,1001,Whi,
,,,,,left_word_19_WHI.jpg,left,19,word,,,,,,,,,,,,,,,,,0,329,329,329,,,,,,,,,,,,,,,f,0.103156390134,2018_Aug_07_1009,None,Arrows_VVA_Direction,1001,Whi,
,,,,,ahead_word_5_WHI.jpg,ahead,5,word,,,,,,,,,,,,,,,,,0,330,330,330,,,,,,,,,,,,,,,f,0.142494470114,2018_Aug_07_1009,None,Arrows_VVA_Direction,1001,Whi,
,,,,,right_word_5_WHI.jpg,right,5,word,,,,,,,,,,,,,,,,,0,331,331,331,,,,,,,,,,,,,,,a,0.0321961145382,2018_Aug_07_1009,None,Arrows_VVA_Direction,1001,Whi,
,,,,,left_word_20_WHI.jpg,left,20,word,,,,,,,,,,,,,,,,,0,332,332,332,,,,,,,,,,,,,,,f,0.000763582997024,2018_Aug_07_1009,None,Arrows_VVA_Direction,1001,Whi,
,,,,,ahead_word_18_WHI.jpg,ahead,18,word,,,,,,,,,,,,,,,,,0,333,333,333,,,,,,,,,,,,,,,a,0.0547095017973,2018_Aug_07_1009,None,Arrows_VVA_Direction,1001,Whi,
,,,,,right_word_15_WHI.jpg,right,15,word,,,,,,,,,,,,,,,,,0,334,334,334,,,,,,,,,,,,,,,f,0.0619725733995,2018_Aug_07_1009,None,Arrows_VVA_Direction,1001,Whi,
,,,,,ahead_word_10_WHI.jpg,ahead,10,word,,,,,,,,,,,,,,,,,0,335,335,335,,,,,,,,,,,,,,,a,0.0628839468118,2018_Aug_07_1009,None,Arrows_VVA_Direction,1001,Whi,
,,,,,ahead_word_6_WHI.jpg,ahead,6,word,,,,,,,,,,,,,,,,,0,336,336,336,,,,,,,,,,,,,,,f,0.0660380381159,2018_Aug_07_1009,None,Arrows_VVA_Direction,1001,Whi,
,,,,,right_word_17_WHI.jpg,right,17,word,,,,,,,,,,,,,,,,,0,337,337,337,,,,,,,,,,,,,,,a,0.0621113320813,2018_Aug_07_1009,None,Arrows_VVA_Direction,1001,Whi,
,,,,,right_word_13_WHI.jpg,right,13,word,,,,,,,,,,,,,,,,,0,338,338,338,,,,,,,,,,,,,,,f,0.0397982825525,2018_Aug_07_1009,None,Arrows_VVA_Direction,1001,Whi,
,,,,,left_word_10_WHI.jpg,left,10,word,,,,,,,,,,,,,,,,,0,339,339,339,,,,,,,,,,,,,,,a,0.0899726750795,2018_Aug_07_1009,None,Arrows_VVA_Direction,1001,Whi,
,,,,,left_image_15_WHI.jpg,left,15,image,,,,,,,,,,,,,,,,,0,340,340,340,,,,,,,,,,,,,,,f,0.278583052335,2018_Aug_07_1009,None,Arrows_VVA_Direction,1001,Whi,
,,,,,right_image_7_WHI.jpg,right,7,image,,,,,,,,,,,,,,,,,0,341,341,341,,,,,,,,,,,,,,,a,0.0403512646444,2018_Aug_07_1009,None,Arrows_VVA_Direction,1001,Whi,
,,,,,ahead_image_19_WHI.jpg,ahead,19,image,,,,,,,,,,,,,,,,,0,342,342,342,,,,,,,,,,,,,,,f,0.0565934174228,2018_Aug_07_1009,None,Arrows_VVA_Direction,1001,Whi,
,,,,,ahead_image_1_WHI.jpg,ahead,1,image,,,,,,,,,,,,,,,,,0,343,343,343,,,,,,,,,,,,,,,a,0.0323619679548,2018_Aug_07_1009,None,Arrows_VVA_Direction,1001,Whi,
,,,,,right_image_10_WHI.jpg,right,10,image,,,,,,,,,,,,,,,,,0,344,344,344,,,,,,,,,,,,,,,f,0.0633917707019,2018_Aug_07_1009,None,Arrows_VVA_Direction,1001,Whi,
,,,,,left_image_12_WHI.jpg,left,12,image,,,,,,,,,,,,,,,,,0,345,345,345,,,,,,,,,,,,,,,a,0.0208917993587,2018_Aug_07_1009,None,Arrows_VVA_Direction,1001,Whi,
,,,,,left_image_6_WHI.jpg,left,6,image,,,,,,,,,,,,,,,,,0,346,346,346,,,,,,,,,,,,,,,f,0.0751862570178,2018_Aug_07_1009,None,Arrows_VVA_Direction,1001,Whi,
,,,,,ahead_image_17_WHI.jpg,ahead,17,image,,,,,,,,,,,,,,,,,0,347,347,347,,,,,,,,,,,,,,,a,0.0249133375473,2018_Aug_07_1009,None,Arrows_VVA_Direction,1001,Whi,
,,,,,ahead_image_8_WHI.jpg,ahead,8,image,,,,,,,,,,,,,,,,,0,348,348,348,,,,,,,,,,,,,,,f,0.000948731554672,2018_Aug_07_1009,None,Arrows_VVA_Direction,1001,Whi,
,,,,,ahead_image_7_WHI.jpg,ahead,7,image,,,,,,,,,,,,,,,,,0,349,349,349,,,,,,,,,,,,,,,a,0.0842831595801,2018_Aug_07_1009,None,Arrows_VVA_Direction,1001,Whi,
,,,,,right_image_6_WHI.jpg,right,6,image,,,,,,,,,,,,,,,,,0,350,350,350,,,,,,,,,,,,,,,f,0.0736344587058,2018_Aug_07_1009,None,Arrows_VVA_Direction,1001,Whi,
,,,,,right_image_1_WHI.jpg,right,1,image,,,,,,,,,,,,,,,,,0,351,351,351,,,,,,,,,,,,,,,a,0.00101852137595,2018_Aug_07_1009,None,Arrows_VVA_Direction,1001,Whi,
,,,,,ahead_image_6_WHI.jpg,ahead,6,image,,,,,,,,,,,,,,,,,0,352,352,352,,,,,,,,,,,,,,,a,0.0951157773379,2018_Aug_07_1009,None,Arrows_VVA_Direction,1001,Whi,
,,,,,left_image_17_WHI.jpg,left,17,image,,,,,,,,,,,,,,,,,0,353,353,353,,,,,,,,,,,,,,,f,0.0647506203968,2018_Aug_07_1009,None,Arrows_VVA_Direction,1001,Whi,
,,,,,right_image_15_WHI.jpg,right,15,image,,,,,,,,,,,,,,,,,0,354,354,354,,,,,,,,,,,,,,,a,0.123264490394,2018_Aug_07_1009,None,Arrows_VVA_Direction,1001,Whi,
,,,,,left_image_20_WHI.jpg,left,20,image,,,,,,,,,,,,,,,,,0,355,355,355,,,,,,,,,,,,,,,a,0.0539438659325,2018_Aug_07_1009,None,Arrows_VVA_Direction,1001,Whi,
,,,,,left_image_8_WHI.jpg,left,8,image,,,,,,,,,,,,,,,,,0,356,356,356,,,,,,,,,,,,,,,f,0.0618547517806,2018_Aug_07_1009,None,Arrows_VVA_Direction,1001,Whi,
,,,,,right_image_16_WHI.jpg,right,16,image,,,,,,,,,,,,,,,,,0,357,357,357,,,,,,,,,,,,,,,a,0.0413899018895,2018_Aug_07_1009,None,Arrows_VVA_Direction,1001,Whi,
,,,,,ahead_image_20_WHI.jpg,ahead,20,image,,,,,,,,,,,,,,,,,0,358,358,358,,,,,,,,,,,,,,,f,0.105644193245,2018_Aug_07_1009,None,Arrows_VVA_Direction,1001,Whi,
,,,,,left_image_16_WHI.jpg,left,16,image,,,,,,,,,,,,,,,,,0,359,359,359,,,,,,,,,,,,,,,a,0.00206988514401,2018_Aug_07_1009,None,Arrows_VVA_Direction,1001,Whi,
