Stimulus_Practice,Direction,Number,Background,Format,Stimulus,direction,number,format,repeat_spatial_practice.thisRepN,repeat_spatial_practice.thisTrialN,repeat_spatial_practice.thisN,repeat_spatial_practice.thisIndex,trials.thisRepN,trials.thisTrialN,trials.thisN,trials.thisIndex,trials_3.thisRepN,trials_3.thisTrialN,trials_3.thisN,trials_3.thisIndex,trials_4.thisRepN,trials_4.thisTrialN,trials_4.thisN,trials_4.thisIndex,trials_2.thisRepN,trials_2.thisTrialN,trials_2.thisN,trials_2.thisIndex,key_resp_7.keys,key_resp_7.rt,key_resp_6.keys,key_resp_6.rt,key_resp_11.keys,key_resp_11.rt,key_resp_2.keys,key_resp_2.rt,key_resp_12.keys,key_resp_12.rt,key_resp_14.keys,key_resp_14.rt,key_resp_13.keys,key_resp_13.rt,direction_response.keys,direction_response.rt,spatialdirection_correct,date,frameRate,expName,participant,Scr or Whi,
,,,,,,,,,,,,,,,,,,,,,,,,,,,,,d,18.9396771112,,,,,,,,,,,,,,,,2018_Oct_02_1047,60.038231236,Arrows_VVA_Direction,1002,Whi,
left_schema_2_WHI.jpg,left,2,_WHI,schema,,,,,0,0,0,0,0,0,0,8,,,,,,,,,,,,,,,d,55.6062824945,f,9.52967549132,,,,,,,,,,,,2018_Oct_02_1047,60.038231236,Arrows_VVA_Direction,1002,Whi,
right_schema_2_WHI.jpg,right,2,_WHI,schema,,,,,0,0,0,0,0,1,1,7,,,,,,,,,,,,,,,,,a,1.93407950264,,,,,,,,,,,,2018_Oct_02_1047,60.038231236,Arrows_VVA_Direction,1002,Whi,
ahead_schema_2_WHI.jpg,ahead,2,_WHI,schema,,,,,0,0,0,0,0,2,2,0,,,,,,,,,,,,,,,,,f,1.96694492576,,,,,,,,,,,,2018_Oct_02_1047,60.038231236,Arrows_VVA_Direction,1002,Whi,
left_schema_1_WHI.jpg,left,1,_WHI,schema,,,,,0,0,0,0,0,3,3,6,,,,,,,,,,,,,,,,,a,1.30049706442,,,,,,,,,,,,2018_Oct_02_1047,60.038231236,Arrows_VVA_Direction,1002,Whi,
ahead_schema_3_WHI.jpg,ahead,3,_WHI,schema,,,,,0,0,0,0,0,4,4,3,,,,,,,,,,,,,,,,,f,1.50083736546,,,,,,,,,,,,2018_Oct_02_1047,60.038231236,Arrows_VVA_Direction,1002,Whi,
left_schema_3_WHI.jpg,left,3,_WHI,schema,,,,,0,0,0,0,0,5,5,5,,,,,,,,,,,,,,,,,a,1.28391173949,,,,,,,,,,,,2018_Oct_02_1047,60.038231236,Arrows_VVA_Direction,1002,Whi,
right_schema_3_WHI.jpg,right,3,_WHI,schema,,,,,0,0,0,0,0,6,6,2,,,,,,,,,,,,,,,,,f,1.41711956097,,,,,,,,,,,,2018_Oct_02_1047,60.038231236,Arrows_VVA_Direction,1002,Whi,
right_schema_1_WHI.jpg,right,1,_WHI,schema,,,,,0,0,0,0,0,7,7,1,,,,,,,,,,,,,,,,,f,1.2507089605,,,,,,,,,,,,2018_Oct_02_1047,60.038231236,Arrows_VVA_Direction,1002,Whi,
right_image_3_WHI.jpg,right,3,_WHI,image,,,,,0,0,0,0,,,,,0,0,0,4,,,,,,,,,,,,,,,d,4.19943756172,f,11.0123871185,,,,,,,,2018_Oct_02_1047,60.038231236,Arrows_VVA_Direction,1002,Whi,
left_image_1_WHI.jpg,left,1,_WHI,image,,,,,0,0,0,0,,,,,0,1,1,3,,,,,,,,,,,,,,,,,a,3.28247529962,,,,,,,,2018_Oct_02_1047,60.038231236,Arrows_VVA_Direction,1002,Whi,
ahead_image_3_WHI.jpg,ahead,3,_WHI,image,,,,,0,0,0,0,,,,,0,2,2,6,,,,,,,,,,,,,,,,,f,1.91743348935,,,,,,,,2018_Oct_02_1047,60.038231236,Arrows_VVA_Direction,1002,Whi,
left_image_2_WHI.jpg,left,2,_WHI,image,,,,,0,0,0,0,,,,,0,3,3,8,,,,,,,,,,,,,,,,,a,1.66671560409,,,,,,,,2018_Oct_02_1047,60.038231236,Arrows_VVA_Direction,1002,Whi,
right_image_1_WHI.jpg,right,1,_WHI,image,,,,,0,0,0,0,,,,,0,4,4,5,,,,,,,,,,,,,,,,,f,1.6171997053,,,,,,,,2018_Oct_02_1047,60.038231236,Arrows_VVA_Direction,1002,Whi,
left_image_3_WHI.jpg,left,3,_WHI,image,,,,,0,0,0,0,,,,,0,5,5,2,,,,,,,,,,,,,,,,,a,1.36686558466,,,,,,,,2018_Oct_02_1047,60.038231236,Arrows_VVA_Direction,1002,Whi,
right_image_2_WHI.jpg,right,2,_WHI,image,,,,,0,0,0,0,,,,,0,6,6,7,,,,,,,,,,,,,,,,,f,1.33388592463,,,,,,,,2018_Oct_02_1047,60.038231236,Arrows_VVA_Direction,1002,Whi,
ahead_image_1_WHI.jpg,ahead,1,_WHI,image,,,,,0,0,0,0,,,,,0,7,7,0,,,,,,,,,,,,,,,,,a,1.6839466353,,,,,,,,2018_Oct_02_1047,60.038231236,Arrows_VVA_Direction,1002,Whi,
left_word_1_WHI.jpg,left,1,_WHI,word,,,,,0,0,0,0,,,,,,,,,0,0,0,0,,,,,,,,,,,d,5.08433316659,,,f,5.54871646355,,,,,,2018_Oct_02_1047,60.038231236,Arrows_VVA_Direction,1002,Whi,
right_word_2_WHI.jpg,right,2,_WHI,word,,,,,0,0,0,0,,,,,,,,,0,1,1,3,,,,,,,,,,,,,,,a,1.55076871176,,,,,,2018_Oct_02_1047,60.038231236,Arrows_VVA_Direction,1002,Whi,
right_word_1_WHI.jpg,right,1,_WHI,word,,,,,0,0,0,0,,,,,,,,,0,2,2,6,,,,,,,,,,,,,,,f,1.45041114131,,,,,,2018_Oct_02_1047,60.038231236,Arrows_VVA_Direction,1002,Whi,
ahead_word_2_WHI.jpg,ahead,2,_WHI,word,,,,,0,0,0,0,,,,,,,,,0,3,3,7,,,,,,,,,,,,,,,a,1.46725349929,,,,,,2018_Oct_02_1047,60.038231236,Arrows_VVA_Direction,1002,Whi,
right_word_3_WHI.jpg,right,3,_WHI,word,,,,,0,0,0,0,,,,,,,,,0,4,4,1,,,,,,,,,,,,,,,f,1.50062674116,,,,,,2018_Oct_02_1047,60.038231236,Arrows_VVA_Direction,1002,Whi,
left_word_2_WHI.jpg,left,2,_WHI,word,,,,,0,0,0,0,,,,,,,,,0,5,5,5,,,,,,,,,,,,,,,a,1.23423831872,,,,,,2018_Oct_02_1047,60.038231236,Arrows_VVA_Direction,1002,Whi,
ahead_word_1_WHI.jpg,ahead,1,_WHI,word,,,,,0,0,0,0,,,,,,,,,0,6,6,8,,,,,,,,,,,,,,,f,1.21769761758,,,,,,2018_Oct_02_1047,60.038231236,Arrows_VVA_Direction,1002,Whi,
ahead_word_3_WHI.jpg,ahead,3,_WHI,word,,,,,0,0,0,0,,,,,,,,,0,7,7,4,,,,,,,,,,,,,,,f,1.40101929667,,,,,,2018_Oct_02_1047,60.038231236,Arrows_VVA_Direction,1002,Whi,
left_schema_2_WHI.jpg,left,2,_WHI,schema,,,,,1,0,1,0,0,0,0,8,,,,,,,,,,,,,,,d,11.7623412676,f,1.98321476048,,,,,,,,,,,,2018_Oct_02_1047,60.038231236,Arrows_VVA_Direction,1002,Whi,
ahead_schema_2_WHI.jpg,ahead,2,_WHI,schema,,,,,1,0,1,0,0,1,1,0,,,,,,,,,,,,,,,,,a,1.41769833156,,,,,,,,,,,,2018_Oct_02_1047,60.038231236,Arrows_VVA_Direction,1002,Whi,
right_schema_1_WHI.jpg,right,1,_WHI,schema,,,,,1,0,1,0,0,2,2,1,,,,,,,,,,,,,,,,,f,1.71707087642,,,,,,,,,,,,2018_Oct_02_1047,60.038231236,Arrows_VVA_Direction,1002,Whi,
ahead_schema_1_WHI.jpg,ahead,1,_WHI,schema,,,,,1,0,1,0,0,3,3,4,,,,,,,,,,,,,,,,,a,1.28377831435,,,,,,,,,,,,2018_Oct_02_1047,60.038231236,Arrows_VVA_Direction,1002,Whi,
right_schema_3_WHI.jpg,right,3,_WHI,schema,,,,,1,0,1,0,0,4,4,2,,,,,,,,,,,,,,,,,f,1.21665877569,,,,,,,,,,,,2018_Oct_02_1047,60.038231236,Arrows_VVA_Direction,1002,Whi,
right_schema_2_WHI.jpg,right,2,_WHI,schema,,,,,1,0,1,0,0,5,5,7,,,,,,,,,,,,,,,,,f,1.5836908071,,,,,,,,,,,,2018_Oct_02_1047,60.038231236,Arrows_VVA_Direction,1002,Whi,
left_schema_3_WHI.jpg,left,3,_WHI,schema,,,,,1,0,1,0,0,6,6,5,,,,,,,,,,,,,,,,,f,1.16786845977,,,,,,,,,,,,2018_Oct_02_1047,60.038231236,Arrows_VVA_Direction,1002,Whi,
ahead_schema_3_WHI.jpg,ahead,3,_WHI,schema,,,,,1,0,1,0,0,7,7,3,,,,,,,,,,,,,,,,,a,1.16707594122,,,,,,,,,,,,2018_Oct_02_1047,60.038231236,Arrows_VVA_Direction,1002,Whi,
ahead_image_3_WHI.jpg,ahead,3,_WHI,image,,,,,1,0,1,0,,,,,0,0,0,6,,,,,,,,,,,,,,,d,2.93360782916,f,3.93258505183,,,,,,,,2018_Oct_02_1047,60.038231236,Arrows_VVA_Direction,1002,Whi,
left_image_2_WHI.jpg,left,2,_WHI,image,,,,,1,0,1,0,,,,,0,1,1,8,,,,,,,,,,,,,,,,,a,1.13453582554,,,,,,,,2018_Oct_02_1047,60.038231236,Arrows_VVA_Direction,1002,Whi,
right_image_2_WHI.jpg,right,2,_WHI,image,,,,,1,0,1,0,,,,,0,2,2,7,,,,,,,,,,,,,,,,,f,1.3178842789,,,,,,,,2018_Oct_02_1047,60.038231236,Arrows_VVA_Direction,1002,Whi,
right_image_1_WHI.jpg,right,1,_WHI,image,,,,,1,0,1,0,,,,,0,3,3,5,,,,,,,,,,,,,,,,,f,1.46745876873,,,,,,,,2018_Oct_02_1047,60.038231236,Arrows_VVA_Direction,1002,Whi,
ahead_image_1_WHI.jpg,ahead,1,_WHI,image,,,,,1,0,1,0,,,,,0,4,4,0,,,,,,,,,,,,,,,,,f,1.15091498855,,,,,,,,2018_Oct_02_1047,60.038231236,Arrows_VVA_Direction,1002,Whi,
left_image_1_WHI.jpg,left,1,_WHI,image,,,,,1,0,1,0,,,,,0,5,5,3,,,,,,,,,,,,,,,,,a,1.53415348889,,,,,,,,2018_Oct_02_1047,60.038231236,Arrows_VVA_Direction,1002,Whi,
right_image_3_WHI.jpg,right,3,_WHI,image,,,,,1,0,1,0,,,,,0,6,6,4,,,,,,,,,,,,,,,,,f,1.20065802244,,,,,,,,2018_Oct_02_1047,60.038231236,Arrows_VVA_Direction,1002,Whi,
left_image_3_WHI.jpg,left,3,_WHI,image,,,,,1,0,1,0,,,,,0,7,7,2,,,,,,,,,,,,,,,,,a,1.06745243215,,,,,,,,2018_Oct_02_1047,60.038231236,Arrows_VVA_Direction,1002,Whi,
right_word_1_WHI.jpg,right,1,_WHI,word,,,,,1,0,1,0,,,,,,,,,0,0,0,6,,,,,,,,,,,d,2.44978730069,,,f,2.54931620732,,,,,,2018_Oct_02_1047,60.038231236,Arrows_VVA_Direction,1002,Whi,
ahead_word_2_WHI.jpg,ahead,2,_WHI,word,,,,,1,0,1,0,,,,,,,,,0,1,1,7,,,,,,,,,,,,,,,a,1.21743567592,,,,,,2018_Oct_02_1047,60.038231236,Arrows_VVA_Direction,1002,Whi,
left_word_2_WHI.jpg,left,2,_WHI,word,,,,,1,0,1,0,,,,,,,,,0,2,2,5,,,,,,,,,,,,,,,f,1.1176443814,,,,,,2018_Oct_02_1047,60.038231236,Arrows_VVA_Direction,1002,Whi,
right_word_2_WHI.jpg,right,2,_WHI,word,,,,,1,0,1,0,,,,,,,,,0,3,3,3,,,,,,,,,,,,,,,a,1.05088540298,,,,,,2018_Oct_02_1047,60.038231236,Arrows_VVA_Direction,1002,Whi,
ahead_word_3_WHI.jpg,ahead,3,_WHI,word,,,,,1,0,1,0,,,,,,,,,0,4,4,4,,,,,,,,,,,,,,,f,1.15072087505,,,,,,2018_Oct_02_1047,60.038231236,Arrows_VVA_Direction,1002,Whi,
ahead_word_1_WHI.jpg,ahead,1,_WHI,word,,,,,1,0,1,0,,,,,,,,,0,5,5,8,,,,,,,,,,,,,,,f,2.16702730128,,,,,,2018_Oct_02_1047,60.038231236,Arrows_VVA_Direction,1002,Whi,
right_word_3_WHI.jpg,right,3,_WHI,word,,,,,1,0,1,0,,,,,,,,,0,6,6,1,,,,,,,,,,,,,,,f,1.11774166126,,,,,,2018_Oct_02_1047,60.038231236,Arrows_VVA_Direction,1002,Whi,
left_word_3_WHI.jpg,left,3,_WHI,word,,,,,1,0,1,0,,,,,,,,,0,7,7,2,,,,,,,,,,,,,,,a,0.984207639861,,,,,,2018_Oct_02_1047,60.038231236,Arrows_VVA_Direction,1002,Whi,
,,,,,,,,,,,,,,,,,,,,,,,,,,,,,,,,,,,,,,,,,d,22.9893799836,,,,2018_Oct_02_1047,60.038231236,Arrows_VVA_Direction,1002,Whi,
,,,,,right_schema_8_WHI.jpg,right,8,schema,,,,,,,,,,,,,,,,,0,0,0,0,,,,,,,,,,,,,,,f,2.68365702689,,2018_Oct_02_1047,60.038231236,Arrows_VVA_Direction,1002,Whi,
,,,,,right_schema_15_WHI.jpg,right,15,schema,,,,,,,,,,,,,,,,,0,1,1,1,,,,,,,,,,,,,,,f,1.45091806759,0,2018_Oct_02_1047,60.038231236,Arrows_VVA_Direction,1002,Whi,
,,,,,ahead_schema_11_WHI.jpg,ahead,11,schema,,,,,,,,,,,,,,,,,0,2,2,2,,,,,,,,,,,,,,,f,1.33446826512,,2018_Oct_02_1047,60.038231236,Arrows_VVA_Direction,1002,Whi,
,,,,,left_schema_13_WHI.jpg,left,13,schema,,,,,,,,,,,,,,,,,0,3,3,3,,,,,,,,,,,,,,,a,1.15040627732,0,2018_Oct_02_1047,60.038231236,Arrows_VVA_Direction,1002,Whi,
,,,,,ahead_schema_1_WHI.jpg,ahead,1,schema,,,,,,,,,,,,,,,,,0,4,4,4,,,,,,,,,,,,,,,f,1.05105809705,,2018_Oct_02_1047,60.038231236,Arrows_VVA_Direction,1002,Whi,
,,,,,right_schema_13_WHI.jpg,right,13,schema,,,,,,,,,,,,,,,,,0,5,5,5,,,,,,,,,,,,,,,a,1.0679495412,0,2018_Oct_02_1047,60.038231236,Arrows_VVA_Direction,1002,Whi,
,,,,,left_schema_16_WHI.jpg,left,16,schema,,,,,,,,,,,,,,,,,0,6,6,6,,,,,,,,,,,,,,,f,1.26746296337,,2018_Oct_02_1047,60.038231236,Arrows_VVA_Direction,1002,Whi,
,,,,,ahead_schema_4_WHI.jpg,ahead,4,schema,,,,,,,,,,,,,,,,,0,7,7,7,,,,,,,,,,,,,,,a,1.1004628826,0,2018_Oct_02_1047,60.038231236,Arrows_VVA_Direction,1002,Whi,
,,,,,ahead_schema_6_WHI.jpg,ahead,6,schema,,,,,,,,,,,,,,,,,0,8,8,8,,,,,,,,,,,,,,,f,3.18249881635,,2018_Oct_02_1047,60.038231236,Arrows_VVA_Direction,1002,Whi,
,,,,,left_schema_6_WHI.jpg,left,6,schema,,,,,,,,,,,,,,,,,0,9,9,9,,,,,,,,,,,,,,,a,1.20113594326,0,2018_Oct_02_1047,60.038231236,Arrows_VVA_Direction,1002,Whi,
,,,,,ahead_schema_13_WHI.jpg,ahead,13,schema,,,,,,,,,,,,,,,,,0,10,10,10,,,,,,,,,,,,,,,f,1.23416781313,,2018_Oct_02_1047,60.038231236,Arrows_VVA_Direction,1002,Whi,
,,,,,right_schema_6_WHI.jpg,right,6,schema,,,,,,,,,,,,,,,,,0,11,11,11,,,,,,,,,,,,,,,a,1.0674046847,0,2018_Oct_02_1047,60.038231236,Arrows_VVA_Direction,1002,Whi,
,,,,,left_schema_10_WHI.jpg,left,10,schema,,,,,,,,,,,,,,,,,0,12,12,12,,,,,,,,,,,,,,,f,1.41745022328,,2018_Oct_02_1047,60.038231236,Arrows_VVA_Direction,1002,Whi,
,,,,,right_schema_21_WHI.jpg,right,21,schema,,,,,,,,,,,,,,,,,0,13,13,13,,,,,,,,,,,,,,,a,1.250653627,0,2018_Oct_02_1047,60.038231236,Arrows_VVA_Direction,1002,Whi,
,,,,,ahead_schema_20_WHI.jpg,ahead,20,schema,,,,,,,,,,,,,,,,,0,14,14,14,,,,,,,,,,,,,,,f,1.20098734603,,2018_Oct_02_1047,60.038231236,Arrows_VVA_Direction,1002,Whi,
,,,,,left_schema_9_WHI.jpg,left,9,schema,,,,,,,,,,,,,,,,,0,15,15,15,,,,,,,,,,,,,,,a,1.08459243082,0,2018_Oct_02_1047,60.038231236,Arrows_VVA_Direction,1002,Whi,
,,,,,ahead_schema_3_WHI.jpg,ahead,3,schema,,,,,,,,,,,,,,,,,0,16,16,16,,,,,,,,,,,,,,,f,1.08435101611,,2018_Oct_02_1047,60.038231236,Arrows_VVA_Direction,1002,Whi,
,,,,,right_schema_20_WHI.jpg,right,20,schema,,,,,,,,,,,,,,,,,0,17,17,17,,,,,,,,,,,,,,,a,1.00080813688,0,2018_Oct_02_1047,60.038231236,Arrows_VVA_Direction,1002,Whi,
,,,,,left_schema_5_WHI.jpg,left,5,schema,,,,,,,,,,,,,,,,,0,18,18,18,,,,,,,,,,,,,,,f,1.18346938384,,2018_Oct_02_1047,60.038231236,Arrows_VVA_Direction,1002,Whi,
,,,,,left_schema_18_WHI.jpg,left,18,schema,,,,,,,,,,,,,,,,,0,19,19,19,,,,,,,,,,,,,,,f,1.35056808319,0,2018_Oct_02_1047,60.038231236,Arrows_VVA_Direction,1002,Whi,
,,,,,right_word_11_WHI.jpg,right,11,word,,,,,,,,,,,,,,,,,0,20,20,20,,,,,,,,,,,,,,,f,2.58324992403,,2018_Oct_02_1047,60.038231236,Arrows_VVA_Direction,1002,Whi,
,,,,,ahead_word_2_WHI.jpg,ahead,2,word,,,,,,,,,,,,,,,,,0,21,21,21,,,,,,,,,,,,,,,a,1.53387280523,0,2018_Oct_02_1047,60.038231236,Arrows_VVA_Direction,1002,Whi,
,,,,,ahead_word_19_WHI.jpg,ahead,19,word,,,,,,,,,,,,,,,,,0,22,22,22,,,,,,,,,,,,,,,f,1.45060659352,,2018_Oct_02_1047,60.038231236,Arrows_VVA_Direction,1002,Whi,
,,,,,ahead_word_13_WHI.jpg,ahead,13,word,,,,,,,,,,,,,,,,,0,23,23,23,,,,,,,,,,,,,,,f,1.11779253239,0,2018_Oct_02_1047,60.038231236,Arrows_VVA_Direction,1002,Whi,
,,,,,right_word_13_WHI.jpg,right,13,word,,,,,,,,,,,,,,,,,0,24,24,24,,,,,,,,,,,,,,,f,1.0843086235,,2018_Oct_02_1047,60.038231236,Arrows_VVA_Direction,1002,Whi,
,,,,,right_word_21_WHI.jpg,right,21,word,,,,,,,,,,,,,,,,,0,25,25,25,,,,,,,,,,,,,,,f,1.36735823133,0,2018_Oct_02_1047,60.038231236,Arrows_VVA_Direction,1002,Whi,
,,,,,right_word_8_WHI.jpg,right,8,word,,,,,,,,,,,,,,,,,0,26,26,26,,,,,,,,,,,,,,,f,1.15089624656,,2018_Oct_02_1047,60.038231236,Arrows_VVA_Direction,1002,Whi,
,,,,,left_word_11_WHI.jpg,left,11,word,,,,,,,,,,,,,,,,,0,27,27,27,,,,,,,,,,,,,,,a,1.2673398017,0,2018_Oct_02_1047,60.038231236,Arrows_VVA_Direction,1002,Whi,
,,,,,left_word_9_WHI.jpg,left,9,word,,,,,,,,,,,,,,,,,0,28,28,28,,,,,,,,,,,,,,,f,1.13400614113,,2018_Oct_02_1047,60.038231236,Arrows_VVA_Direction,1002,Whi,
,,,,,ahead_word_18_WHI.jpg,ahead,18,word,,,,,,,,,,,,,,,,,0,29,29,29,,,,,,,,,,,,,,,a,1.48427658362,0,2018_Oct_02_1047,60.038231236,Arrows_VVA_Direction,1002,Whi,
,,,,,ahead_word_16_WHI.jpg,ahead,16,word,,,,,,,,,,,,,,,,,0,30,30,30,,,,,,,,,,,,,,,f,1.78371427921,,2018_Oct_02_1047,60.038231236,Arrows_VVA_Direction,1002,Whi,
,,,,,left_word_1_WHI.jpg,left,1,word,,,,,,,,,,,,,,,,,0,31,31,31,,,,,,,,,,,,,,,a,1.1845314301,0,2018_Oct_02_1047,60.038231236,Arrows_VVA_Direction,1002,Whi,
,,,,,left_word_16_WHI.jpg,left,16,word,,,,,,,,,,,,,,,,,0,32,32,32,,,,,,,,,,,,,,,f,1.30015078379,,2018_Oct_02_1047,60.038231236,Arrows_VVA_Direction,1002,Whi,
,,,,,right_word_19_WHI.jpg,right,19,word,,,,,,,,,,,,,,,,,0,33,33,33,,,,,,,,,,,,,,,a,1.06707268368,0,2018_Oct_02_1047,60.038231236,Arrows_VVA_Direction,1002,Whi,
,,,,,ahead_word_15_WHI.jpg,ahead,15,word,,,,,,,,,,,,,,,,,0,34,34,34,,,,,,,,,,,,,,,f,1.50064548316,,2018_Oct_02_1047,60.038231236,Arrows_VVA_Direction,1002,Whi,
,,,,,left_word_2_WHI.jpg,left,2,word,,,,,,,,,,,,,,,,,0,35,35,35,,,,,,,,,,,,,,,a,1.10069492632,0,2018_Oct_02_1047,60.038231236,Arrows_VVA_Direction,1002,Whi,
,,,,,left_word_10_WHI.jpg,left,10,word,,,,,,,,,,,,,,,,,0,36,36,36,,,,,,,,,,,,,,,f,1.29977728265,,2018_Oct_02_1047,60.038231236,Arrows_VVA_Direction,1002,Whi,
,,,,,right_word_14_WHI.jpg,right,14,word,,,,,,,,,,,,,,,,,0,37,37,37,,,,,,,,,,,,,,,a,0.967422400341,0,2018_Oct_02_1047,60.038231236,Arrows_VVA_Direction,1002,Whi,
,,,,,ahead_word_8_WHI.jpg,ahead,8,word,,,,,,,,,,,,,,,,,0,38,38,38,,,,,,,,,,,,,,,f,1.1499765502,,2018_Oct_02_1047,60.038231236,Arrows_VVA_Direction,1002,Whi,
,,,,,left_word_17_WHI.jpg,left,17,word,,,,,,,,,,,,,,,,,0,39,39,39,,,,,,,,,,,,,,,a,1.05053555244,0,2018_Oct_02_1047,60.038231236,Arrows_VVA_Direction,1002,Whi,
,,,,,left_image_13_WHI.jpg,left,13,image,,,,,,,,,,,,,,,,,0,40,40,40,,,,,,,,,,,,,,,f,2.81527936502,,2018_Oct_02_1047,60.038231236,Arrows_VVA_Direction,1002,Whi,
,,,,,ahead_image_8_WHI.jpg,ahead,8,image,,,,,,,,,,,,,,,,,0,41,41,41,,,,,,,,,,,,,,,a,1.69959887673,0,2018_Oct_02_1047,60.038231236,Arrows_VVA_Direction,1002,Whi,
,,,,,ahead_image_3_WHI.jpg,ahead,3,image,,,,,,,,,,,,,,,,,0,42,42,42,,,,,,,,,,,,,,,f,1.31676020557,,2018_Oct_02_1047,60.038231236,Arrows_VVA_Direction,1002,Whi,
,,,,,left_image_10_WHI.jpg,left,10,image,,,,,,,,,,,,,,,,,0,43,43,43,,,,,,,,,,,,,,,a,1.03361956521,0,2018_Oct_02_1047,60.038231236,Arrows_VVA_Direction,1002,Whi,
,,,,,right_image_6_WHI.jpg,right,6,image,,,,,,,,,,,,,,,,,0,44,44,44,,,,,,,,,,,,,,,f,1.35022626494,,2018_Oct_02_1047,60.038231236,Arrows_VVA_Direction,1002,Whi,
,,,,,right_image_20_WHI.jpg,right,20,image,,,,,,,,,,,,,,,,,0,45,45,45,,,,,,,,,,,,,,,f,2.41623779483,0,2018_Oct_02_1047,60.038231236,Arrows_VVA_Direction,1002,Whi,
,,,,,left_image_2_WHI.jpg,left,2,image,,,,,,,,,,,,,,,,,0,46,46,46,,,,,,,,,,,,,,,f,1.25013956091,,2018_Oct_02_1047,60.038231236,Arrows_VVA_Direction,1002,Whi,
,,,,,right_image_21_WHI.jpg,right,21,image,,,,,,,,,,,,,,,,,0,47,47,47,,,,,,,,,,,,,,,a,1.2501324211,0,2018_Oct_02_1047,60.038231236,Arrows_VVA_Direction,1002,Whi,
,,,,,ahead_image_19_WHI.jpg,ahead,19,image,,,,,,,,,,,,,,,,,0,48,48,48,,,,,,,,,,,,,,,f,1.16704559704,,2018_Oct_02_1047,60.038231236,Arrows_VVA_Direction,1002,Whi,
,,,,,right_image_4_WHI.jpg,right,4,image,,,,,,,,,,,,,,,,,0,49,49,49,,,,,,,,,,,,,,,a,1.2165976411,0,2018_Oct_02_1047,60.038231236,Arrows_VVA_Direction,1002,Whi,
,,,,,right_image_13_WHI.jpg,right,13,image,,,,,,,,,,,,,,,,,0,50,50,50,,,,,,,,,,,,,,,f,1.20026934921,,2018_Oct_02_1047,60.038231236,Arrows_VVA_Direction,1002,Whi,
,,,,,ahead_image_17_WHI.jpg,ahead,17,image,,,,,,,,,,,,,,,,,0,51,51,51,,,,,,,,,,,,,,,a,1.16666093995,0,2018_Oct_02_1047,60.038231236,Arrows_VVA_Direction,1002,Whi,
,,,,,ahead_image_12_WHI.jpg,ahead,12,image,,,,,,,,,,,,,,,,,0,52,52,52,,,,,,,,,,,,,,,f,1.39977250791,,2018_Oct_02_1047,60.038231236,Arrows_VVA_Direction,1002,Whi,
,,,,,left_image_1_WHI.jpg,left,1,image,,,,,,,,,,,,,,,,,0,53,53,53,,,,,,,,,,,,,,,a,1.08351119633,0,2018_Oct_02_1047,60.038231236,Arrows_VVA_Direction,1002,Whi,
,,,,,left_image_4_WHI.jpg,left,4,image,,,,,,,,,,,,,,,,,0,54,54,54,,,,,,,,,,,,,,,f,1.21670072206,,2018_Oct_02_1047,60.038231236,Arrows_VVA_Direction,1002,Whi,
,,,,,left_image_5_WHI.jpg,left,5,image,,,,,,,,,,,,,,,,,0,55,55,55,,,,,,,,,,,,,,,f,1.31631173646,0,2018_Oct_02_1047,60.038231236,Arrows_VVA_Direction,1002,Whi,
,,,,,right_image_1_WHI.jpg,right,1,image,,,,,,,,,,,,,,,,,0,56,56,56,,,,,,,,,,,,,,,f,1.78298468021,,2018_Oct_02_1047,60.038231236,Arrows_VVA_Direction,1002,Whi,
,,,,,ahead_image_2_WHI.jpg,ahead,2,image,,,,,,,,,,,,,,,,,0,57,57,57,,,,,,,,,,,,,,,a,1.20030906439,0,2018_Oct_02_1047,60.038231236,Arrows_VVA_Direction,1002,Whi,
,,,,,right_image_3_WHI.jpg,right,3,image,,,,,,,,,,,,,,,,,0,58,58,58,,,,,,,,,,,,,,,f,1.18371124479,,2018_Oct_02_1047,60.038231236,Arrows_VVA_Direction,1002,Whi,
,,,,,left_image_19_WHI.jpg,left,19,image,,,,,,,,,,,,,,,,,0,59,59,59,,,,,,,,,,,,,,,a,1.11666176549,0,2018_Oct_02_1047,60.038231236,Arrows_VVA_Direction,1002,Whi,
,,,,,right_image_8_WHI.jpg,right,8,image,,,,,,,,,,,,,,,,,0,60,60,60,,,,,,,,,,,,,,,f,2.18249435397,,2018_Oct_02_1047,60.038231236,Arrows_VVA_Direction,1002,Whi,
,,,,,left_image_8_WHI.jpg,left,8,image,,,,,,,,,,,,,,,,,0,61,61,61,,,,,,,,,,,,,,,a,1.23325391786,0,2018_Oct_02_1047,60.038231236,Arrows_VVA_Direction,1002,Whi,
,,,,,left_image_11_WHI.jpg,left,11,image,,,,,,,,,,,,,,,,,0,62,62,62,,,,,,,,,,,,,,,f,1.25031493241,,2018_Oct_02_1047,60.038231236,Arrows_VVA_Direction,1002,Whi,
,,,,,left_image_18_WHI.jpg,left,18,image,,,,,,,,,,,,,,,,,0,63,63,63,,,,,,,,,,,,,,,f,1.25027387853,0,2018_Oct_02_1047,60.038231236,Arrows_VVA_Direction,1002,Whi,
,,,,,ahead_image_20_WHI.jpg,ahead,20,image,,,,,,,,,,,,,,,,,0,64,64,64,,,,,,,,,,,,,,,f,1.13372188757,,2018_Oct_02_1047,60.038231236,Arrows_VVA_Direction,1002,Whi,
,,,,,right_image_17_WHI.jpg,right,17,image,,,,,,,,,,,,,,,,,0,65,65,65,,,,,,,,,,,,,,,a,1.1835688949,0,2018_Oct_02_1047,60.038231236,Arrows_VVA_Direction,1002,Whi,
,,,,,right_image_2_WHI.jpg,right,2,image,,,,,,,,,,,,,,,,,0,66,66,66,,,,,,,,,,,,,,,f,1.56666906148,,2018_Oct_02_1047,60.038231236,Arrows_VVA_Direction,1002,Whi,
,,,,,ahead_image_7_WHI.jpg,ahead,7,image,,,,,,,,,,,,,,,,,0,67,67,67,,,,,,,,,,,,,,,a,1.46674255686,0,2018_Oct_02_1047,60.038231236,Arrows_VVA_Direction,1002,Whi,
,,,,,ahead_image_16_WHI.jpg,ahead,16,image,,,,,,,,,,,,,,,,,0,68,68,68,,,,,,,,,,,,,,,f,1.41640736525,,2018_Oct_02_1047,60.038231236,Arrows_VVA_Direction,1002,Whi,
,,,,,left_image_17_WHI.jpg,left,17,image,,,,,,,,,,,,,,,,,0,69,69,69,,,,,,,,,,,,,,,a,0.967091291801,0,2018_Oct_02_1047,60.038231236,Arrows_VVA_Direction,1002,Whi,
,,,,,ahead_image_13_WHI.jpg,ahead,13,image,,,,,,,,,,,,,,,,,0,70,70,70,,,,,,,,,,,,,,,f,1.15027597584,,2018_Oct_02_1047,60.038231236,Arrows_VVA_Direction,1002,Whi,
,,,,,left_image_12_WHI.jpg,left,12,image,,,,,,,,,,,,,,,,,0,71,71,71,,,,,,,,,,,,,,,a,1.08362364829,0,2018_Oct_02_1047,60.038231236,Arrows_VVA_Direction,1002,Whi,
,,,,,right_image_15_WHI.jpg,right,15,image,,,,,,,,,,,,,,,,,0,72,72,72,,,,,,,,,,,,,,,f,1.64996650984,,2018_Oct_02_1047,60.038231236,Arrows_VVA_Direction,1002,Whi,
,,,,,ahead_image_9_WHI.jpg,ahead,9,image,,,,,,,,,,,,,,,,,0,73,73,73,,,,,,,,,,,,,,,a,1.10024333354,0,2018_Oct_02_1047,60.038231236,Arrows_VVA_Direction,1002,Whi,
,,,,,left_image_16_WHI.jpg,left,16,image,,,,,,,,,,,,,,,,,0,74,74,74,,,,,,,,,,,,,,,f,1.31621713402,,2018_Oct_02_1047,60.038231236,Arrows_VVA_Direction,1002,Whi,
,,,,,ahead_image_5_WHI.jpg,ahead,5,image,,,,,,,,,,,,,,,,,0,75,75,75,,,,,,,,,,,,,,,a,1.13362193027,0,2018_Oct_02_1047,60.038231236,Arrows_VVA_Direction,1002,Whi,
,,,,,left_image_6_WHI.jpg,left,6,image,,,,,,,,,,,,,,,,,0,76,76,76,,,,,,,,,,,,,,,f,1.28326424827,,2018_Oct_02_1047,60.038231236,Arrows_VVA_Direction,1002,Whi,
,,,,,right_image_18_WHI.jpg,right,18,image,,,,,,,,,,,,,,,,,0,77,77,77,,,,,,,,,,,,,,,a,1.18314095273,0,2018_Oct_02_1047,60.038231236,Arrows_VVA_Direction,1002,Whi,
,,,,,ahead_image_18_WHI.jpg,ahead,18,image,,,,,,,,,,,,,,,,,0,78,78,78,,,,,,,,,,,,,,,f,1.13364290346,,2018_Oct_02_1047,60.038231236,Arrows_VVA_Direction,1002,Whi,
,,,,,right_image_7_WHI.jpg,right,7,image,,,,,,,,,,,,,,,,,0,79,79,79,,,,,,,,,,,,,,,a,0.983399056742,0,2018_Oct_02_1047,60.038231236,Arrows_VVA_Direction,1002,Whi,
,,,,,ahead_schema_10_WHI.jpg,ahead,10,schema,,,,,,,,,,,,,,,,,0,80,80,80,,,,,,,,,,,,,,,f,2.86582785837,,2018_Oct_02_1047,60.038231236,Arrows_VVA_Direction,1002,Whi,
,,,,,left_schema_3_WHI.jpg,left,3,schema,,,,,,,,,,,,,,,,,0,81,81,81,,,,,,,,,,,,,,,a,0.999688079691,0,2018_Oct_02_1047,60.038231236,Arrows_VVA_Direction,1002,Whi,
,,,,,left_schema_7_WHI.jpg,left,7,schema,,,,,,,,,,,,,,,,,0,82,82,82,,,,,,,,,,,,,,,f,1.11668987848,,2018_Oct_02_1047,60.038231236,Arrows_VVA_Direction,1002,Whi,
,,,,,right_schema_9_WHI.jpg,right,9,schema,,,,,,,,,,,,,,,,,0,83,83,83,,,,,,,,,,,,,,,a,1.11643418415,0,2018_Oct_02_1047,60.038231236,Arrows_VVA_Direction,1002,Whi,
,,,,,left_schema_14_WHI.jpg,left,14,schema,,,,,,,,,,,,,,,,,0,84,84,84,,,,,,,,,,,,,,,f,1.08326978162,,2018_Oct_02_1047,60.038231236,Arrows_VVA_Direction,1002,Whi,
,,,,,right_schema_7_WHI.jpg,right,7,schema,,,,,,,,,,,,,,,,,0,85,85,85,,,,,,,,,,,,,,,a,1.11667693758,0,2018_Oct_02_1047,60.038231236,Arrows_VVA_Direction,1002,Whi,
,,,,,ahead_schema_14_WHI.jpg,ahead,14,schema,,,,,,,,,,,,,,,,,0,86,86,86,,,,,,,,,,,,,,,f,1.10003137053,,2018_Oct_02_1047,60.038231236,Arrows_VVA_Direction,1002,Whi,
,,,,,ahead_schema_17_WHI.jpg,ahead,17,schema,,,,,,,,,,,,,,,,,0,87,87,87,,,,,,,,,,,,,,,f,1.36669333682,0,2018_Oct_02_1047,60.038231236,Arrows_VVA_Direction,1002,Whi,
,,,,,right_schema_5_WHI.jpg,right,5,schema,,,,,,,,,,,,,,,,,0,88,88,88,,,,,,,,,,,,,,,f,1.13342156945,,2018_Oct_02_1047,60.038231236,Arrows_VVA_Direction,1002,Whi,
,,,,,right_schema_19_WHI.jpg,right,19,schema,,,,,,,,,,,,,,,,,0,89,89,89,,,,,,,,,,,,,,,f,1.21633346825,0,2018_Oct_02_1047,60.038231236,Arrows_VVA_Direction,1002,Whi,
,,,,,right_schema_12_WHI.jpg,right,12,schema,,,,,,,,,,,,,,,,,0,90,90,90,,,,,,,,,,,,,,,f,1.1500800774,,2018_Oct_02_1047,60.038231236,Arrows_VVA_Direction,1002,Whi,
,,,,,ahead_schema_18_WHI.jpg,ahead,18,schema,,,,,,,,,,,,,,,,,0,91,91,91,,,,,,,,,,,,,,,a,1.01666921766,0,2018_Oct_02_1047,60.038231236,Arrows_VVA_Direction,1002,Whi,
,,,,,ahead_schema_16_WHI.jpg,ahead,16,schema,,,,,,,,,,,,,,,,,0,92,92,92,,,,,,,,,,,,,,,f,1.21678863093,,2018_Oct_02_1047,60.038231236,Arrows_VVA_Direction,1002,Whi,
,,,,,left_schema_15_WHI.jpg,left,15,schema,,,,,,,,,,,,,,,,,0,93,93,93,,,,,,,,,,,,,,,a,1.18346447522,0,2018_Oct_02_1047,60.038231236,Arrows_VVA_Direction,1002,Whi,
,,,,,ahead_schema_21_WHI.jpg,ahead,21,schema,,,,,,,,,,,,,,,,,0,94,94,94,,,,,,,,,,,,,,,f,1.1666627249,,2018_Oct_02_1047,60.038231236,Arrows_VVA_Direction,1002,Whi,
,,,,,right_schema_18_WHI.jpg,right,18,schema,,,,,,,,,,,,,,,,,0,95,95,95,,,,,,,,,,,,,,,a,1.41661798955,0,2018_Oct_02_1047,60.038231236,Arrows_VVA_Direction,1002,Whi,
,,,,,left_schema_1_WHI.jpg,left,1,schema,,,,,,,,,,,,,,,,,0,96,96,96,,,,,,,,,,,,,,,f,1.33320094942,,2018_Oct_02_1047,60.038231236,Arrows_VVA_Direction,1002,Whi,
,,,,,left_schema_8_WHI.jpg,left,8,schema,,,,,,,,,,,,,,,,,0,97,97,97,,,,,,,,,,,,,,,f,1.43322696509,0,2018_Oct_02_1047,60.038231236,Arrows_VVA_Direction,1002,Whi,
,,,,,left_schema_20_WHI.jpg,left,20,schema,,,,,,,,,,,,,,,,,0,98,98,98,,,,,,,,,,,,,,,f,1.36684104157,,2018_Oct_02_1047,60.038231236,Arrows_VVA_Direction,1002,Whi,
,,,,,ahead_schema_12_WHI.jpg,ahead,12,schema,,,,,,,,,,,,,,,,,0,99,99,99,,,,,,,,,,,,,,,a,0.950219928361,0,2018_Oct_02_1047,60.038231236,Arrows_VVA_Direction,1002,Whi,
,,,,,left_word_4_WHI.jpg,left,4,word,,,,,,,,,,,,,,,,,0,100,100,100,,,,,,,,,,,,,,,f,2.8493362434,,2018_Oct_02_1047,60.038231236,Arrows_VVA_Direction,1002,Whi,
,,,,,ahead_word_5_WHI.jpg,ahead,5,word,,,,,,,,,,,,,,,,,0,101,101,101,,,,,,,,,,,,,,,a,1.30014944508,0,2018_Oct_02_1047,60.038231236,Arrows_VVA_Direction,1002,Whi,
,,,,,ahead_word_1_WHI.jpg,ahead,1,word,,,,,,,,,,,,,,,,,0,102,102,102,,,,,,,,,,,,,,,f,1.16663505815,,2018_Oct_02_1047,60.038231236,Arrows_VVA_Direction,1002,Whi,
,,,,,left_word_6_WHI.jpg,left,6,word,,,,,,,,,,,,,,,,,0,103,103,103,,,,,,,,,,,,,,,a,1.16659043435,0,2018_Oct_02_1047,60.038231236,Arrows_VVA_Direction,1002,Whi,
,,,,,right_word_3_WHI.jpg,right,3,word,,,,,,,,,,,,,,,,,0,104,104,104,,,,,,,,,,,,,,,f,1.20041928515,,2018_Oct_02_1047,60.038231236,Arrows_VVA_Direction,1002,Whi,
,,,,,ahead_word_7_WHI.jpg,ahead,7,word,,,,,,,,,,,,,,,,,0,105,105,105,,,,,,,,,,,,,,,a,1.19993333205,0,2018_Oct_02_1047,60.038231236,Arrows_VVA_Direction,1002,Whi,
,,,,,left_word_12_WHI.jpg,left,12,word,,,,,,,,,,,,,,,,,0,106,106,106,,,,,,,,,,,,,,,f,1.11666845906,,2018_Oct_02_1047,60.038231236,Arrows_VVA_Direction,1002,Whi,
,,,,,right_word_15_WHI.jpg,right,15,word,,,,,,,,,,,,,,,,,0,107,107,107,,,,,,,,,,,,,,,a,1.10030803804,0,2018_Oct_02_1047,60.038231236,Arrows_VVA_Direction,1002,Whi,
,,,,,left_word_13_WHI.jpg,left,13,word,,,,,,,,,,,,,,,,,0,108,108,108,,,,,,,,,,,,,,,f,1.1999926817,,2018_Oct_02_1047,60.038231236,Arrows_VVA_Direction,1002,Whi,
,,,,,ahead_word_4_WHI.jpg,ahead,4,word,,,,,,,,,,,,,,,,,0,109,109,109,,,,,,,,,,,,,,,a,1.10034819945,0,2018_Oct_02_1047,60.038231236,Arrows_VVA_Direction,1002,Whi,
,,,,,ahead_word_9_WHI.jpg,ahead,9,word,,,,,,,,,,,,,,,,,0,110,110,110,,,,,,,,,,,,,,,f,1.05007369619,,2018_Oct_02_1047,60.038231236,Arrows_VVA_Direction,1002,Whi,
,,,,,left_word_18_WHI.jpg,left,18,word,,,,,,,,,,,,,,,,,0,111,111,111,,,,,,,,,,,,,,,a,1.11639803887,0,2018_Oct_02_1047,60.038231236,Arrows_VVA_Direction,1002,Whi,
,,,,,ahead_word_17_WHI.jpg,ahead,17,word,,,,,,,,,,,,,,,,,0,112,112,112,,,,,,,,,,,,,,,f,1.15013317971,,2018_Oct_02_1047,60.038231236,Arrows_VVA_Direction,1002,Whi,
,,,,,right_word_9_WHI.jpg,right,9,word,,,,,,,,,,,,,,,,,0,113,113,113,,,,,,,,,,,,,,,a,1.06685001096,0,2018_Oct_02_1047,60.038231236,Arrows_VVA_Direction,1002,Whi,
,,,,,right_word_10_WHI.jpg,right,10,word,,,,,,,,,,,,,,,,,0,114,114,114,,,,,,,,,,,,,,,f,0.949745577448,,2018_Oct_02_1047,60.038231236,Arrows_VVA_Direction,1002,Whi,
,,,,,right_word_18_WHI.jpg,right,18,word,,,,,,,,,,,,,,,,,0,115,115,115,,,,,,,,,,,,,,,f,1.40010763259,0,2018_Oct_02_1047,60.038231236,Arrows_VVA_Direction,1002,Whi,
,,,,,ahead_word_6_WHI.jpg,ahead,6,word,,,,,,,,,,,,,,,,,0,116,116,116,,,,,,,,,,,,,,,f,1.09977478372,,2018_Oct_02_1047,60.038231236,Arrows_VVA_Direction,1002,Whi,
,,,,,left_word_19_WHI.jpg,left,19,word,,,,,,,,,,,,,,,,,0,117,117,117,,,,,,,,,,,,,,,a,1.06721726477,0,2018_Oct_02_1047,60.038231236,Arrows_VVA_Direction,1002,Whi,
,,,,,left_word_15_WHI.jpg,left,15,word,,,,,,,,,,,,,,,,,0,118,118,118,,,,,,,,,,,,,,,f,1.09997782198,,2018_Oct_02_1047,60.038231236,Arrows_VVA_Direction,1002,Whi,
,,,,,right_word_5_WHI.jpg,right,5,word,,,,,,,,,,,,,,,,,0,119,119,119,,,,,,,,,,,,,,,a,0.950339073887,0,2018_Oct_02_1047,60.038231236,Arrows_VVA_Direction,1002,Whi,
,,,,,left_word_20_WHI.jpg,left,20,word,,,,,,,,,,,,,,,,,0,120,120,120,,,,,,,,,,,,,,,f,3.43194313858,,2018_Oct_02_1047,60.038231236,Arrows_VVA_Direction,1002,Whi,
,,,,,ahead_word_20_WHI.jpg,ahead,20,word,,,,,,,,,,,,,,,,,0,121,121,121,,,,,,,,,,,,,,,a,1.21676051794,0,2018_Oct_02_1047,60.038231236,Arrows_VVA_Direction,1002,Whi,
,,,,,right_word_17_WHI.jpg,right,17,word,,,,,,,,,,,,,,,,,0,122,122,122,,,,,,,,,,,,,,,f,1.18356577123,,2018_Oct_02_1047,60.038231236,Arrows_VVA_Direction,1002,Whi,
,,,,,right_word_2_WHI.jpg,right,2,word,,,,,,,,,,,,,,,,,0,123,123,123,,,,,,,,,,,,,,,f,1.15007472254,0,2018_Oct_02_1047,60.038231236,Arrows_VVA_Direction,1002,Whi,
,,,,,right_word_1_WHI.jpg,right,1,word,,,,,,,,,,,,,,,,,0,124,124,124,,,,,,,,,,,,,,,f,1.13304896078,,2018_Oct_02_1047,60.038231236,Arrows_VVA_Direction,1002,Whi,
,,,,,ahead_word_12_WHI.jpg,ahead,12,word,,,,,,,,,,,,,,,,,0,125,125,125,,,,,,,,,,,,,,,a,1.10018130647,0,2018_Oct_02_1047,60.038231236,Arrows_VVA_Direction,1002,Whi,
,,,,,right_word_20_WHI.jpg,right,20,word,,,,,,,,,,,,,,,,,0,126,126,126,,,,,,,,,,,,,,,f,1.11686212631,,2018_Oct_02_1047,60.038231236,Arrows_VVA_Direction,1002,Whi,
,,,,,right_word_4_WHI.jpg,right,4,word,,,,,,,,,,,,,,,,,0,127,127,127,,,,,,,,,,,,,,,f,1.11675279802,0,2018_Oct_02_1047,60.038231236,Arrows_VVA_Direction,1002,Whi,
,,,,,ahead_word_11_WHI.jpg,ahead,11,word,,,,,,,,,,,,,,,,,0,128,128,128,,,,,,,,,,,,,,,f,1.08339160457,,2018_Oct_02_1047,60.038231236,Arrows_VVA_Direction,1002,Whi,
,,,,,right_word_12_WHI.jpg,right,12,word,,,,,,,,,,,,,,,,,0,129,129,129,,,,,,,,,,,,,,,a,1.00012673157,0,2018_Oct_02_1047,60.038231236,Arrows_VVA_Direction,1002,Whi,
,,,,,ahead_word_14_WHI.jpg,ahead,14,word,,,,,,,,,,,,,,,,,0,130,130,130,,,,,,,,,,,,,,,f,1.08359241163,,2018_Oct_02_1047,60.038231236,Arrows_VVA_Direction,1002,Whi,
,,,,,left_word_5_WHI.jpg,left,5,word,,,,,,,,,,,,,,,,,0,131,131,131,,,,,,,,,,,,,,,a,1.96661069356,0,2018_Oct_02_1047,60.038231236,Arrows_VVA_Direction,1002,Whi,
,,,,,right_word_6_WHI.jpg,right,6,word,,,,,,,,,,,,,,,,,0,132,132,132,,,,,,,,,,,,,,,f,1.15001269547,,2018_Oct_02_1047,60.038231236,Arrows_VVA_Direction,1002,Whi,
,,,,,left_word_21_WHI.jpg,left,21,word,,,,,,,,,,,,,,,,,0,133,133,133,,,,,,,,,,,,,,,a,1.08340008309,0,2018_Oct_02_1047,60.038231236,Arrows_VVA_Direction,1002,Whi,
,,,,,ahead_word_10_WHI.jpg,ahead,10,word,,,,,,,,,,,,,,,,,0,134,134,134,,,,,,,,,,,,,,,f,1.06677905913,,2018_Oct_02_1047,60.038231236,Arrows_VVA_Direction,1002,Whi,
,,,,,left_word_8_WHI.jpg,left,8,word,,,,,,,,,,,,,,,,,0,135,135,135,,,,,,,,,,,,,,,a,1.40014690152,0,2018_Oct_02_1047,60.038231236,Arrows_VVA_Direction,1002,Whi,
,,,,,left_word_3_WHI.jpg,left,3,word,,,,,,,,,,,,,,,,,0,136,136,136,,,,,,,,,,,,,,,f,2.14958162963,,2018_Oct_02_1047,60.038231236,Arrows_VVA_Direction,1002,Whi,
,,,,,left_word_14_WHI.jpg,left,14,word,,,,,,,,,,,,,,,,,0,137,137,137,,,,,,,,,,,,,,,f,1.28309200043,0,2018_Oct_02_1047,60.038231236,Arrows_VVA_Direction,1002,Whi,
,,,,,ahead_word_21_WHI.jpg,ahead,21,word,,,,,,,,,,,,,,,,,0,138,138,138,,,,,,,,,,,,,,,f,1.18343591599,,2018_Oct_02_1047,60.038231236,Arrows_VVA_Direction,1002,Whi,
,,,,,ahead_word_3_WHI.jpg,ahead,3,word,,,,,,,,,,,,,,,,,0,139,139,139,,,,,,,,,,,,,,,f,1.24996909802,0,2018_Oct_02_1047,60.038231236,Arrows_VVA_Direction,1002,Whi,
,,,,,ahead_schema_2_WHI.jpg,ahead,2,schema,,,,,,,,,,,,,,,,,0,140,140,140,,,,,,,,,,,,,,,f,4.66452680707,,2018_Oct_02_1047,60.038231236,Arrows_VVA_Direction,1002,Whi,
,,,,,right_schema_10_WHI.jpg,right,10,schema,,,,,,,,,,,,,,,,,0,141,141,141,,,,,,,,,,,,,,,a,1.18434311769,0,2018_Oct_02_1047,60.038231236,Arrows_VVA_Direction,1002,Whi,
,,,,,left_schema_12_WHI.jpg,left,12,schema,,,,,,,,,,,,,,,,,0,142,142,142,,,,,,,,,,,,,,,f,1.5996710334,,2018_Oct_02_1047,60.038231236,Arrows_VVA_Direction,1002,Whi,
,,,,,right_schema_4_WHI.jpg,right,4,schema,,,,,,,,,,,,,,,,,0,143,143,143,,,,,,,,,,,,,,,a,1.16710896282,0,2018_Oct_02_1047,60.038231236,Arrows_VVA_Direction,1002,Whi,
,,,,,ahead_schema_19_WHI.jpg,ahead,19,schema,,,,,,,,,,,,,,,,,0,144,144,144,,,,,,,,,,,,,,,f,1.20028184387,,2018_Oct_02_1047,60.038231236,Arrows_VVA_Direction,1002,Whi,
,,,,,ahead_schema_7_WHI.jpg,ahead,7,schema,,,,,,,,,,,,,,,,,0,145,145,145,,,,,,,,,,,,,,,f,1.23267871717,0,2018_Oct_02_1047,60.038231236,Arrows_VVA_Direction,1002,Whi,
,,,,,left_schema_17_WHI.jpg,left,17,schema,,,,,,,,,,,,,,,,,0,146,146,146,,,,,,,,,,,,,,,f,1.15065840175,,2018_Oct_02_1047,60.038231236,Arrows_VVA_Direction,1002,Whi,
,,,,,ahead_schema_5_WHI.jpg,ahead,5,schema,,,,,,,,,,,,,,,,,0,147,147,147,,,,,,,,,,,,,,,a,1.68314162208,0,2018_Oct_02_1047,60.038231236,Arrows_VVA_Direction,1002,Whi,
,,,,,left_schema_2_WHI.jpg,left,2,schema,,,,,,,,,,,,,,,,,0,148,148,148,,,,,,,,,,,,,,,f,1.1336022958,,2018_Oct_02_1047,60.038231236,Arrows_VVA_Direction,1002,Whi,
,,,,,right_schema_2_WHI.jpg,right,2,schema,,,,,,,,,,,,,,,,,0,149,149,149,,,,,,,,,,,,,,,a,1.06717442593,0,2018_Oct_02_1047,60.038231236,Arrows_VVA_Direction,1002,Whi,
,,,,,ahead_schema_15_WHI.jpg,ahead,15,schema,,,,,,,,,,,,,,,,,0,150,150,150,,,,,,,,,,,,,,,f,1.06616369703,,2018_Oct_02_1047,60.038231236,Arrows_VVA_Direction,1002,Whi,
,,,,,ahead_schema_9_WHI.jpg,ahead,9,schema,,,,,,,,,,,,,,,,,0,151,151,151,,,,,,,,,,,,,,,f,1.13378659207,0,2018_Oct_02_1047,60.038231236,Arrows_VVA_Direction,1002,Whi,
,,,,,left_schema_11_WHI.jpg,left,11,schema,,,,,,,,,,,,,,,,,0,152,152,152,,,,,,,,,,,,,,,f,1.13391421611,,2018_Oct_02_1047,60.038231236,Arrows_VVA_Direction,1002,Whi,
,,,,,right_schema_3_WHI.jpg,right,3,schema,,,,,,,,,,,,,,,,,0,153,153,153,,,,,,,,,,,,,,,a,1.06698566728,0,2018_Oct_02_1047,60.038231236,Arrows_VVA_Direction,1002,Whi,
,,,,,left_schema_19_WHI.jpg,left,19,schema,,,,,,,,,,,,,,,,,0,154,154,154,,,,,,,,,,,,,,,f,1.21711884699,,2018_Oct_02_1047,60.038231236,Arrows_VVA_Direction,1002,Whi,
,,,,,right_schema_14_WHI.jpg,right,14,schema,,,,,,,,,,,,,,,,,0,155,155,155,,,,,,,,,,,,,,,a,1.03336431712,0,2018_Oct_02_1047,60.038231236,Arrows_VVA_Direction,1002,Whi,
,,,,,right_schema_16_WHI.jpg,right,16,schema,,,,,,,,,,,,,,,,,0,156,156,156,,,,,,,,,,,,,,,f,1.01715338581,,2018_Oct_02_1047,60.038231236,Arrows_VVA_Direction,1002,Whi,
,,,,,left_schema_4_WHI.jpg,left,4,schema,,,,,,,,,,,,,,,,,0,157,157,157,,,,,,,,,,,,,,,a,1.03311620883,0,2018_Oct_02_1047,60.038231236,Arrows_VVA_Direction,1002,Whi,
,,,,,left_schema_21_WHI.jpg,left,21,schema,,,,,,,,,,,,,,,,,0,158,158,158,,,,,,,,,,,,,,,f,1.08339963685,,2018_Oct_02_1047,60.038231236,Arrows_VVA_Direction,1002,Whi,
,,,,,right_schema_1_WHI.jpg,right,1,schema,,,,,,,,,,,,,,,,,0,159,159,159,,,,,,,,,,,,,,,a,1.0169708745,0,2018_Oct_02_1047,60.038231236,Arrows_VVA_Direction,1002,Whi,
,,,,,right_image_10_WHI.jpg,right,10,image,,,,,,,,,,,,,,,,,0,160,160,160,,,,,,,,,,,,,,,f,4.19833267662,,2018_Oct_02_1047,60.038231236,Arrows_VVA_Direction,1002,Whi,
,,,,,right_image_5_WHI.jpg,right,5,image,,,,,,,,,,,,,,,,,0,161,161,161,,,,,,,,,,,,,,,f,1.2336497309,0,2018_Oct_02_1047,60.038231236,Arrows_VVA_Direction,1002,Whi,
,,,,,ahead_image_4_WHI.jpg,ahead,4,image,,,,,,,,,,,,,,,,,0,162,162,162,,,,,,,,,,,,,,,f,1.20066560849,,2018_Oct_02_1047,60.038231236,Arrows_VVA_Direction,1002,Whi,
,,,,,ahead_image_1_WHI.jpg,ahead,1,image,,,,,,,,,,,,,,,,,0,163,163,163,,,,,,,,,,,,,,,f,1.50009616427,0,2018_Oct_02_1047,60.038231236,Arrows_VVA_Direction,1002,Whi,
,,,,,right_image_9_WHI.jpg,right,9,image,,,,,,,,,,,,,,,,,0,164,164,164,,,,,,,,,,,,,,,f,1.33307198666,,2018_Oct_02_1047,60.038231236,Arrows_VVA_Direction,1002,Whi,
,,,,,left_image_20_WHI.jpg,left,20,image,,,,,,,,,,,,,,,,,0,165,165,165,,,,,,,,,,,,,,,f,1.96543708782,1,2018_Oct_02_1047,60.038231236,Arrows_VVA_Direction,1002,Whi,
,,,,,ahead_image_11_WHI.jpg,ahead,11,image,,,,,,,,,,,,,,,,,0,166,166,166,,,,,,,,,,,,,,,f,1.25050681472,,2018_Oct_02_1047,60.038231236,Arrows_VVA_Direction,1002,Whi,
,,,,,left_image_21_WHI.jpg,left,21,image,,,,,,,,,,,,,,,,,0,167,167,167,,,,,,,,,,,,,,,a,1.39995055684,0,2018_Oct_02_1047,60.038231236,Arrows_VVA_Direction,1002,Whi,
,,,,,left_image_7_WHI.jpg,left,7,image,,,,,,,,,,,,,,,,,0,168,168,168,,,,,,,,,,,,,,,f,1.26575387212,,2018_Oct_02_1047,60.038231236,Arrows_VVA_Direction,1002,Whi,
,,,,,ahead_image_10_WHI.jpg,ahead,10,image,,,,,,,,,,,,,,,,,0,169,169,169,,,,,,,,,,,,,,,a,1.11731104167,0,2018_Oct_02_1047,60.038231236,Arrows_VVA_Direction,1002,Whi,
,,,,,ahead_image_15_WHI.jpg,ahead,15,image,,,,,,,,,,,,,,,,,0,170,170,170,,,,,,,,,,,,,,,f,1.55038182348,,2018_Oct_02_1047,60.038231236,Arrows_VVA_Direction,1002,Whi,
,,,,,right_image_11_WHI.jpg,right,11,image,,,,,,,,,,,,,,,,,0,171,171,171,,,,,,,,,,,,,,,a,1.267060903,0,2018_Oct_02_1047,60.038231236,Arrows_VVA_Direction,1002,Whi,
,,,,,left_image_15_WHI.jpg,left,15,image,,,,,,,,,,,,,,,,,0,172,172,172,,,,,,,,,,,,,,,f,1.46644848607,,2018_Oct_02_1047,60.038231236,Arrows_VVA_Direction,1002,Whi,
,,,,,right_image_12_WHI.jpg,right,12,image,,,,,,,,,,,,,,,,,0,173,173,173,,,,,,,,,,,,,,,a,1.2334038538,0,2018_Oct_02_1047,60.038231236,Arrows_VVA_Direction,1002,Whi,
,,,,,left_image_14_WHI.jpg,left,14,image,,,,,,,,,,,,,,,,,0,174,174,174,,,,,,,,,,,,,,,f,1.26697120918,,2018_Oct_02_1047,60.038231236,Arrows_VVA_Direction,1002,Whi,
,,,,,ahead_image_21_WHI.jpg,ahead,21,image,,,,,,,,,,,,,,,,,0,175,175,175,,,,,,,,,,,,,,,a,1.28296259143,0,2018_Oct_02_1047,60.038231236,Arrows_VVA_Direction,1002,Whi,
,,,,,right_image_16_WHI.jpg,right,16,image,,,,,,,,,,,,,,,,,0,176,176,176,,,,,,,,,,,,,,,f,1.26679271401,,2018_Oct_02_1047,60.038231236,Arrows_VVA_Direction,1002,Whi,
,,,,,ahead_image_14_WHI.jpg,ahead,14,image,,,,,,,,,,,,,,,,,0,177,177,177,,,,,,,,,,,,,,,a,1.09993498313,0,2018_Oct_02_1047,60.038231236,Arrows_VVA_Direction,1002,Whi,
,,,,,left_image_9_WHI.jpg,left,9,image,,,,,,,,,,,,,,,,,0,178,178,178,,,,,,,,,,,,,,,f,1.18278931724,,2018_Oct_02_1047,60.038231236,Arrows_VVA_Direction,1002,Whi,
,,,,,left_image_3_WHI.jpg,left,3,image,,,,,,,,,,,,,,,,,0,179,179,179,,,,,,,,,,,,,,,f,1.23220302755,0,2018_Oct_02_1047,60.038231236,Arrows_VVA_Direction,1002,Whi,
,,,,,right_image_10_WHI.jpg,right,10,image,,,,,,,,,,,,,,,,,0,180,180,180,,,,,,,,,,,,,,,f,5.46478758852,,2018_Oct_02_1047,60.038231236,Arrows_VVA_Direction,1002,Whi,
,,,,,ahead_image_13_WHI.jpg,ahead,13,image,,,,,,,,,,,,,,,,,0,181,181,181,,,,,,,,,,,,,,,a,3.23263230843,0,2018_Oct_02_1047,60.038231236,Arrows_VVA_Direction,1002,Whi,
,,,,,left_image_12_WHI.jpg,left,12,image,,,,,,,,,,,,,,,,,0,182,182,182,,,,,,,,,,,,,,,f,1.11663632993,,2018_Oct_02_1047,60.038231236,Arrows_VVA_Direction,1002,Whi,
,,,,,left_image_10_WHI.jpg,left,10,image,,,,,,,,,,,,,,,,,0,183,183,183,,,,,,,,,,,,,,,f,1.33321746022,0,2018_Oct_02_1047,60.038231236,Arrows_VVA_Direction,1002,Whi,
,,,,,ahead_image_10_WHI.jpg,ahead,10,image,,,,,,,,,,,,,,,,,0,184,184,184,,,,,,,,,,,,,,,f,1.0833425184,,2018_Oct_02_1047,60.038231236,Arrows_VVA_Direction,1002,Whi,
,,,,,left_image_17_WHI.jpg,left,17,image,,,,,,,,,,,,,,,,,0,185,185,185,,,,,,,,,,,,,,,a,1.31654958127,0,2018_Oct_02_1047,60.038231236,Arrows_VVA_Direction,1002,Whi,
,,,,,ahead_image_3_WHI.jpg,ahead,3,image,,,,,,,,,,,,,,,,,0,186,186,186,,,,,,,,,,,,,,,f,1.13345949967,,2018_Oct_02_1047,60.038231236,Arrows_VVA_Direction,1002,Whi,
,,,,,left_image_9_WHI.jpg,left,9,image,,,,,,,,,,,,,,,,,0,187,187,187,,,,,,,,,,,,,,,a,1.76615794056,0,2018_Oct_02_1047,60.038231236,Arrows_VVA_Direction,1002,Whi,
,,,,,ahead_image_1_WHI.jpg,ahead,1,image,,,,,,,,,,,,,,,,,0,188,188,188,,,,,,,,,,,,,,,f,1.16658240207,,2018_Oct_02_1047,60.038231236,Arrows_VVA_Direction,1002,Whi,
,,,,,ahead_image_19_WHI.jpg,ahead,19,image,,,,,,,,,,,,,,,,,0,189,189,189,,,,,,,,,,,,,,,f,1.13348448899,0,2018_Oct_02_1047,60.038231236,Arrows_VVA_Direction,1002,Whi,
,,,,,ahead_image_2_WHI.jpg,ahead,2,image,,,,,,,,,,,,,,,,,0,190,190,190,,,,,,,,,,,,,,,f,1.0500290724,,2018_Oct_02_1047,60.038231236,Arrows_VVA_Direction,1002,Whi,
,,,,,left_image_18_WHI.jpg,left,18,image,,,,,,,,,,,,,,,,,0,191,191,191,,,,,,,,,,,,,,,a,1.00054039413,0,2018_Oct_02_1047,60.038231236,Arrows_VVA_Direction,1002,Whi,
,,,,,right_image_5_WHI.jpg,right,5,image,,,,,,,,,,,,,,,,,0,192,192,192,,,,,,,,,,,,,,,f,1.16682604798,,2018_Oct_02_1047,60.038231236,Arrows_VVA_Direction,1002,Whi,
,,,,,right_image_16_WHI.jpg,right,16,image,,,,,,,,,,,,,,,,,0,193,193,193,,,,,,,,,,,,,,,f,1.06692988754,0,2018_Oct_02_1047,60.038231236,Arrows_VVA_Direction,1002,Whi,
,,,,,left_image_3_WHI.jpg,left,3,image,,,,,,,,,,,,,,,,,0,194,194,194,,,,,,,,,,,,,,,f,1.15034201906,,2018_Oct_02_1047,60.038231236,Arrows_VVA_Direction,1002,Whi,
,,,,,left_image_14_WHI.jpg,left,14,image,,,,,,,,,,,,,,,,,0,195,195,195,,,,,,,,,,,,,,,f,1.09994301542,0,2018_Oct_02_1047,60.038231236,Arrows_VVA_Direction,1002,Whi,
,,,,,right_image_21_WHI.jpg,right,21,image,,,,,,,,,,,,,,,,,0,196,196,196,,,,,,,,,,,,,,,f,1.15109036006,,2018_Oct_02_1047,60.038231236,Arrows_VVA_Direction,1002,Whi,
,,,,,right_image_9_WHI.jpg,right,9,image,,,,,,,,,,,,,,,,,0,197,197,197,,,,,,,,,,,,,,,f,1.11734495575,0,2018_Oct_02_1047,60.038231236,Arrows_VVA_Direction,1002,Whi,
,,,,,right_image_14_WHI.jpg,right,14,image,,,,,,,,,,,,,,,,,0,198,198,198,,,,,,,,,,,,,,,f,1.11731371909,,2018_Oct_02_1047,60.038231236,Arrows_VVA_Direction,1002,Whi,
,,,,,right_image_13_WHI.jpg,right,13,image,,,,,,,,,,,,,,,,,0,199,199,199,,,,,,,,,,,,,,,f,1.30056801625,0,2018_Oct_02_1047,60.038231236,Arrows_VVA_Direction,1002,Whi,
,,,,,ahead_word_1_WHI.jpg,ahead,1,word,,,,,,,,,,,,,,,,,0,200,200,200,,,,,,,,,,,,,,,f,2.50003993829,,2018_Oct_02_1047,60.038231236,Arrows_VVA_Direction,1002,Whi,
,,,,,right_word_2_WHI.jpg,right,2,word,,,,,,,,,,,,,,,,,0,201,201,201,,,,,,,,,,,,,,,a,1.15085653138,0,2018_Oct_02_1047,60.038231236,Arrows_VVA_Direction,1002,Whi,
,,,,,right_word_16_WHI.jpg,right,16,word,,,,,,,,,,,,,,,,,0,202,202,202,,,,,,,,,,,,,,,f,1.26768474362,,2018_Oct_02_1047,60.038231236,Arrows_VVA_Direction,1002,Whi,
,,,,,left_word_11_WHI.jpg,left,11,word,,,,,,,,,,,,,,,,,0,203,203,203,,,,,,,,,,,,,,,a,1.06739308251,0,2018_Oct_02_1047,60.038231236,Arrows_VVA_Direction,1002,Whi,
,,,,,right_word_15_WHI.jpg,right,15,word,,,,,,,,,,,,,,,,,0,204,204,204,,,,,,,,,,,,,,,f,1.1006123723,,2018_Oct_02_1047,60.038231236,Arrows_VVA_Direction,1002,Whi,
,,,,,ahead_word_3_WHI.jpg,ahead,3,word,,,,,,,,,,,,,,,,,0,205,205,205,,,,,,,,,,,,,,,a,1.05078633816,0,2018_Oct_02_1047,60.038231236,Arrows_VVA_Direction,1002,Whi,
,,,,,right_word_10_WHI.jpg,right,10,word,,,,,,,,,,,,,,,,,0,206,206,206,,,,,,,,,,,,,,,f,1.15100780604,,2018_Oct_02_1047,60.038231236,Arrows_VVA_Direction,1002,Whi,
,,,,,ahead_word_6_WHI.jpg,ahead,6,word,,,,,,,,,,,,,,,,,0,207,207,207,,,,,,,,,,,,,,,a,1.21798008619,0,2018_Oct_02_1047,60.038231236,Arrows_VVA_Direction,1002,Whi,
,,,,,ahead_word_12_WHI.jpg,ahead,12,word,,,,,,,,,,,,,,,,,0,208,208,208,,,,,,,,,,,,,,,f,1.18439309634,,2018_Oct_02_1047,60.038231236,Arrows_VVA_Direction,1002,Whi,
,,,,,left_word_1_WHI.jpg,left,1,word,,,,,,,,,,,,,,,,,0,209,209,209,,,,,,,,,,,,,,,a,1.18417354728,0,2018_Oct_02_1047,60.038231236,Arrows_VVA_Direction,1002,Whi,
,,,,,ahead_word_14_WHI.jpg,ahead,14,word,,,,,,,,,,,,,,,,,0,210,210,210,,,,,,,,,,,,,,,f,1.11787553264,,2018_Oct_02_1047,60.038231236,Arrows_VVA_Direction,1002,Whi,
,,,,,left_word_13_WHI.jpg,left,13,word,,,,,,,,,,,,,,,,,0,211,211,211,,,,,,,,,,,,,,,a,1.08447997887,0,2018_Oct_02_1047,60.038231236,Arrows_VVA_Direction,1002,Whi,
,,,,,right_word_4_WHI.jpg,right,4,word,,,,,,,,,,,,,,,,,0,212,212,212,,,,,,,,,,,,,,,f,1.03406491066,,2018_Oct_02_1047,60.038231236,Arrows_VVA_Direction,1002,Whi,
,,,,,left_word_19_WHI.jpg,left,19,word,,,,,,,,,,,,,,,,,0,213,213,213,,,,,,,,,,,,,,,a,1.00127400927,0,2018_Oct_02_1047,60.038231236,Arrows_VVA_Direction,1002,Whi,
,,,,,left_word_15_WHI.jpg,left,15,word,,,,,,,,,,,,,,,,,0,214,214,214,,,,,,,,,,,,,,,f,1.03453435296,,2018_Oct_02_1047,60.038231236,Arrows_VVA_Direction,1002,Whi,
,,,,,left_word_4_WHI.jpg,left,4,word,,,,,,,,,,,,,,,,,0,215,215,215,,,,,,,,,,,,,,,f,1.03426705644,0,2018_Oct_02_1047,60.038231236,Arrows_VVA_Direction,1002,Whi,
,,,,,ahead_word_4_WHI.jpg,ahead,4,word,,,,,,,,,,,,,,,,,0,216,216,216,,,,,,,,,,,,,,,f,0.967447835902,,2018_Oct_02_1047,60.038231236,Arrows_VVA_Direction,1002,Whi,
,,,,,left_word_2_WHI.jpg,left,2,word,,,,,,,,,,,,,,,,,0,217,217,217,,,,,,,,,,,,,,,a,0.967526373777,0,2018_Oct_02_1047,60.038231236,Arrows_VVA_Direction,1002,Whi,
,,,,,right_word_7_WHI.jpg,right,7,word,,,,,,,,,,,,,,,,,0,218,218,218,,,,,,,,,,,,,,,f,0.950829489366,,2018_Oct_02_1047,60.038231236,Arrows_VVA_Direction,1002,Whi,
,,,,,ahead_word_16_WHI.jpg,ahead,16,word,,,,,,,,,,,,,,,,,0,219,219,219,,,,,,,,,,,,,,,a,1.25058936874,0,2018_Oct_02_1047,60.038231236,Arrows_VVA_Direction,1002,Whi,
,,,,,left_schema_2_WHI.jpg,left,2,schema,,,,,,,,,,,,,,,,,0,220,220,220,,,,,,,,,,,,,,,f,5.43193555253,,2018_Oct_02_1047,60.038231236,Arrows_VVA_Direction,1002,Whi,
,,,,,ahead_schema_19_WHI.jpg,ahead,19,schema,,,,,,,,,,,,,,,,,0,221,221,221,,,,,,,,,,,,,,,a,1.25061078816,0,2018_Oct_02_1047,60.038231236,Arrows_VVA_Direction,1002,Whi,
,,,,,right_schema_16_WHI.jpg,right,16,schema,,,,,,,,,,,,,,,,,0,222,222,222,,,,,,,,,,,,,,,f,1.06741003955,,2018_Oct_02_1047,60.038231236,Arrows_VVA_Direction,1002,Whi,
,,,,,left_schema_5_WHI.jpg,left,5,schema,,,,,,,,,,,,,,,,,0,223,223,223,,,,,,,,,,,,,,,a,1.03401850192,0,2018_Oct_02_1047,60.038231236,Arrows_VVA_Direction,1002,Whi,
,,,,,ahead_schema_14_WHI.jpg,ahead,14,schema,,,,,,,,,,,,,,,,,0,224,224,224,,,,,,,,,,,,,,,f,1.05110539827,,2018_Oct_02_1047,60.038231236,Arrows_VVA_Direction,1002,Whi,
,,,,,right_schema_17_WHI.jpg,right,17,schema,,,,,,,,,,,,,,,,,0,225,225,225,,,,,,,,,,,,,,,a,1.01704539623,0,2018_Oct_02_1047,60.038231236,Arrows_VVA_Direction,1002,Whi,
,,,,,left_schema_13_WHI.jpg,left,13,schema,,,,,,,,,,,,,,,,,0,226,226,226,,,,,,,,,,,,,,,f,1.03355218329,,2018_Oct_02_1047,60.038231236,Arrows_VVA_Direction,1002,Whi,
,,,,,right_schema_10_WHI.jpg,right,10,schema,,,,,,,,,,,,,,,,,0,227,227,227,,,,,,,,,,,,,,,a,1.03310505289,0,2018_Oct_02_1047,60.038231236,Arrows_VVA_Direction,1002,Whi,
,,,,,ahead_schema_18_WHI.jpg,ahead,18,schema,,,,,,,,,,,,,,,,,0,228,228,228,,,,,,,,,,,,,,,f,1.16779884665,,2018_Oct_02_1047,60.038231236,Arrows_VVA_Direction,1002,Whi,
,,,,,left_schema_18_WHI.jpg,left,18,schema,,,,,,,,,,,,,,,,,0,229,229,229,,,,,,,,,,,,,,,a,1.10075382973,0,2018_Oct_02_1047,60.038231236,Arrows_VVA_Direction,1002,Whi,
,,,,,right_schema_14_WHI.jpg,right,14,schema,,,,,,,,,,,,,,,,,0,230,230,230,,,,,,,,,,,,,,,f,0.934536896513,,2018_Oct_02_1047,60.038231236,Arrows_VVA_Direction,1002,Whi,
,,,,,right_schema_20_WHI.jpg,right,20,schema,,,,,,,,,,,,,,,,,0,231,231,231,,,,,,,,,,,,,,,f,1.03417959381,0,2018_Oct_02_1047,60.038231236,Arrows_VVA_Direction,1002,Whi,
,,,,,left_schema_11_WHI.jpg,left,11,schema,,,,,,,,,,,,,,,,,0,232,232,232,,,,,,,,,,,,,,,f,1.03448169688,,2018_Oct_02_1047,60.038231236,Arrows_VVA_Direction,1002,Whi,
,,,,,ahead_schema_7_WHI.jpg,ahead,7,schema,,,,,,,,,,,,,,,,,0,233,233,233,,,,,,,,,,,,,,,a,0.900889218312,0,2018_Oct_02_1047,60.038231236,Arrows_VVA_Direction,1002,Whi,
,,,,,left_schema_9_WHI.jpg,left,9,schema,,,,,,,,,,,,,,,,,0,234,234,234,,,,,,,,,,,,,,,f,0.951235565876,,2018_Oct_02_1047,60.038231236,Arrows_VVA_Direction,1002,Whi,
,,,,,left_schema_3_WHI.jpg,left,3,schema,,,,,,,,,,,,,,,,,0,235,235,235,,,,,,,,,,,,,,,f,1.03379672167,0,2018_Oct_02_1047,60.038231236,Arrows_VVA_Direction,1002,Whi,
,,,,,right_schema_6_WHI.jpg,right,6,schema,,,,,,,,,,,,,,,,,0,236,236,236,,,,,,,,,,,,,,,f,1.06745287839,,2018_Oct_02_1047,60.038231236,Arrows_VVA_Direction,1002,Whi,
,,,,,ahead_schema_16_WHI.jpg,ahead,16,schema,,,,,,,,,,,,,,,,,0,237,237,237,,,,,,,,,,,,,,,a,0.967552701814,0,2018_Oct_02_1047,60.038231236,Arrows_VVA_Direction,1002,Whi,
,,,,,ahead_schema_21_WHI.jpg,ahead,21,schema,,,,,,,,,,,,,,,,,0,238,238,238,,,,,,,,,,,,,,,f,1.15079361184,,2018_Oct_02_1047,60.038231236,Arrows_VVA_Direction,1002,Whi,
,,,,,right_schema_12_WHI.jpg,right,12,schema,,,,,,,,,,,,,,,,,0,239,239,239,,,,,,,,,,,,,,,a,1.55091998642,0,2018_Oct_02_1047,60.038231236,Arrows_VVA_Direction,1002,Whi,
,,,,,left_word_9_WHI.jpg,left,9,word,,,,,,,,,,,,,,,,,0,240,240,240,,,,,,,,,,,,,,,f,3.54941571837,,2018_Oct_02_1047,60.038231236,Arrows_VVA_Direction,1002,Whi,
,,,,,right_word_1_WHI.jpg,right,1,word,,,,,,,,,,,,,,,,,0,241,241,241,,,,,,,,,,,,,,,a,1.08405783779,0,2018_Oct_02_1047,60.038231236,Arrows_VVA_Direction,1002,Whi,
,,,,,left_word_20_WHI.jpg,left,20,word,,,,,,,,,,,,,,,,,0,242,242,242,,,,,,,,,,,,,,,f,1.16739634005,,2018_Oct_02_1047,60.038231236,Arrows_VVA_Direction,1002,Whi,
,,,,,ahead_word_10_WHI.jpg,ahead,10,word,,,,,,,,,,,,,,,,,0,243,243,243,,,,,,,,,,,,,,,a,1.03442100852,0,2018_Oct_02_1047,60.038231236,Arrows_VVA_Direction,1002,Whi,
,,,,,right_word_3_WHI.jpg,right,3,word,,,,,,,,,,,,,,,,,0,244,244,244,,,,,,,,,,,,,,,f,1.00079207232,,2018_Oct_02_1047,60.038231236,Arrows_VVA_Direction,1002,Whi,
,,,,,left_word_18_WHI.jpg,left,18,word,,,,,,,,,,,,,,,,,0,245,245,245,,,,,,,,,,,,,,,a,1.01783389864,0,2018_Oct_02_1047,60.038231236,Arrows_VVA_Direction,1002,Whi,
,,,,,ahead_word_21_WHI.jpg,ahead,21,word,,,,,,,,,,,,,,,,,0,246,246,246,,,,,,,,,,,,,,,f,1.06767822854,,2018_Oct_02_1047,60.038231236,Arrows_VVA_Direction,1002,Whi,
,,,,,ahead_word_7_WHI.jpg,ahead,7,word,,,,,,,,,,,,,,,,,0,247,247,247,,,,,,,,,,,,,,,f,1.43372496661,0,2018_Oct_02_1047,60.038231236,Arrows_VVA_Direction,1002,Whi,
,,,,,left_word_10_WHI.jpg,left,10,word,,,,,,,,,,,,,,,,,0,248,248,248,,,,,,,,,,,,,,,f,1.01737828972,,2018_Oct_02_1047,60.038231236,Arrows_VVA_Direction,1002,Whi,
,,,,,left_word_12_WHI.jpg,left,12,word,,,,,,,,,,,,,,,,,0,249,249,249,,,,,,,,,,,,,,,f,1.15101851575,0,2018_Oct_02_1047,60.038231236,Arrows_VVA_Direction,1002,Whi,
,,,,,right_word_8_WHI.jpg,right,8,word,,,,,,,,,,,,,,,,,0,250,250,250,,,,,,,,,,,,,,,f,1.01765183357,,2018_Oct_02_1047,60.038231236,Arrows_VVA_Direction,1002,Whi,
,,,,,left_word_3_WHI.jpg,left,3,word,,,,,,,,,,,,,,,,,0,251,251,251,,,,,,,,,,,,,,,a,1.03450623997,0,2018_Oct_02_1047,60.038231236,Arrows_VVA_Direction,1002,Whi,
,,,,,right_word_11_WHI.jpg,right,11,word,,,,,,,,,,,,,,,,,0,252,252,252,,,,,,,,,,,,,,,f,1.08446659173,,2018_Oct_02_1047,60.038231236,Arrows_VVA_Direction,1002,Whi,
,,,,,right_word_6_WHI.jpg,right,6,word,,,,,,,,,,,,,,,,,0,253,253,253,,,,,,,,,,,,,,,f,1.13478393383,0,2018_Oct_02_1047,60.038231236,Arrows_VVA_Direction,1002,Whi,
,,,,,ahead_word_8_WHI.jpg,ahead,8,word,,,,,,,,,,,,,,,,,0,254,254,254,,,,,,,,,,,,,,,f,1.23395406516,,2018_Oct_02_1047,60.038231236,Arrows_VVA_Direction,1002,Whi,
,,,,,ahead_word_9_WHI.jpg,ahead,9,word,,,,,,,,,,,,,,,,,0,255,255,255,,,,,,,,,,,,,,,f,1.18403878343,0,2018_Oct_02_1047,60.038231236,Arrows_VVA_Direction,1002,Whi,
,,,,,left_word_14_WHI.jpg,left,14,word,,,,,,,,,,,,,,,,,0,256,256,256,,,,,,,,,,,,,,,f,1.10127280443,,2018_Oct_02_1047,60.038231236,Arrows_VVA_Direction,1002,Whi,
,,,,,ahead_word_15_WHI.jpg,ahead,15,word,,,,,,,,,,,,,,,,,0,257,257,257,,,,,,,,,,,,,,,a,1.08459109211,0,2018_Oct_02_1047,60.038231236,Arrows_VVA_Direction,1002,Whi,
,,,,,right_word_18_WHI.jpg,right,18,word,,,,,,,,,,,,,,,,,0,258,258,258,,,,,,,,,,,,,,,f,1.06735470605,,2018_Oct_02_1047,60.038231236,Arrows_VVA_Direction,1002,Whi,
,,,,,right_word_9_WHI.jpg,right,9,word,,,,,,,,,,,,,,,,,0,259,259,259,,,,,,,,,,,,,,,f,1.15074854181,0,2018_Oct_02_1047,60.038231236,Arrows_VVA_Direction,1002,Whi,
,,,,,ahead_image_6_WHI.jpg,ahead,6,image,,,,,,,,,,,,,,,,,0,260,260,260,,,,,,,,,,,,,,,f,5.78172271936,,2018_Oct_02_1047,60.038231236,Arrows_VVA_Direction,1002,Whi,
,,,,,ahead_image_5_WHI.jpg,ahead,5,image,,,,,,,,,,,,,,,,,0,261,261,261,,,,,,,,,,,,,,,f,1.18437837049,0,2018_Oct_02_1047,60.038231236,Arrows_VVA_Direction,1002,Whi,
,,,,,left_image_21_WHI.jpg,left,21,image,,,,,,,,,,,,,,,,,0,262,262,262,,,,,,,,,,,,,,,f,1.26831304661,,2018_Oct_02_1047,60.038231236,Arrows_VVA_Direction,1002,Whi,
,,,,,ahead_image_20_WHI.jpg,ahead,20,image,,,,,,,,,,,,,,,,,0,263,263,263,,,,,,,,,,,,,,,a,1.53380720826,0,2018_Oct_02_1047,60.038231236,Arrows_VVA_Direction,1002,Whi,
,,,,,ahead_image_18_WHI.jpg,ahead,18,image,,,,,,,,,,,,,,,,,0,264,264,264,,,,,,,,,,,,,,,f,1.26765663063,,2018_Oct_02_1047,60.038231236,Arrows_VVA_Direction,1002,Whi,
,,,,,ahead_image_4_WHI.jpg,ahead,4,image,,,,,,,,,,,,,,,,,0,265,265,265,,,,,,,,,,,,,,,f,1.20103420101,0,2018_Oct_02_1047,60.038231236,Arrows_VVA_Direction,1002,Whi,
,,,,,right_image_3_WHI.jpg,right,3,image,,,,,,,,,,,,,,,,,0,266,266,266,,,,,,,,,,,,,,,f,1.26689311754,,2018_Oct_02_1047,60.038231236,Arrows_VVA_Direction,1002,Whi,
,,,,,right_image_15_WHI.jpg,right,15,image,,,,,,,,,,,,,,,,,0,267,267,267,,,,,,,,,,,,,,,f,1.55072810411,0,2018_Oct_02_1047,60.038231236,Arrows_VVA_Direction,1002,Whi,
,,,,,right_image_17_WHI.jpg,right,17,image,,,,,,,,,,,,,,,,,0,268,268,268,,,,,,,,,,,,,,,f,1.20058617814,,2018_Oct_02_1047,60.038231236,Arrows_VVA_Direction,1002,Whi,
,,,,,left_image_8_WHI.jpg,left,8,image,,,,,,,,,,,,,,,,,0,269,269,269,,,,,,,,,,,,,,,a,1.06738192656,0,2018_Oct_02_1047,60.038231236,Arrows_VVA_Direction,1002,Whi,
,,,,,right_image_18_WHI.jpg,right,18,image,,,,,,,,,,,,,,,,,0,270,270,270,,,,,,,,,,,,,,,f,1.11784251103,,2018_Oct_02_1047,60.038231236,Arrows_VVA_Direction,1002,Whi,
,,,,,left_image_13_WHI.jpg,left,13,image,,,,,,,,,,,,,,,,,0,271,271,271,,,,,,,,,,,,,,,a,1.15101226842,0,2018_Oct_02_1047,60.038231236,Arrows_VVA_Direction,1002,Whi,
,,,,,left_image_15_WHI.jpg,left,15,image,,,,,,,,,,,,,,,,,0,272,272,272,,,,,,,,,,,,,,,f,1.48422615873,,2018_Oct_02_1047,60.038231236,Arrows_VVA_Direction,1002,Whi,
,,,,,left_image_19_WHI.jpg,left,19,image,,,,,,,,,,,,,,,,,0,273,273,273,,,,,,,,,,,,,,,f,1.30055462912,0,2018_Oct_02_1047,60.038231236,Arrows_VVA_Direction,1002,Whi,
,,,,,right_image_20_WHI.jpg,right,20,image,,,,,,,,,,,,,,,,,0,274,274,274,,,,,,,,,,,,,,,f,1.11685364779,,2018_Oct_02_1047,60.038231236,Arrows_VVA_Direction,1002,Whi,
,,,,,right_image_4_WHI.jpg,right,4,image,,,,,,,,,,,,,,,,,0,275,275,275,,,,,,,,,,,,,,,f,1.39948379197,0,2018_Oct_02_1047,60.038231236,Arrows_VVA_Direction,1002,Whi,
,,,,,ahead_image_16_WHI.jpg,ahead,16,image,,,,,,,,,,,,,,,,,0,276,276,276,,,,,,,,,,,,,,,f,1.13375357046,,2018_Oct_02_1047,60.038231236,Arrows_VVA_Direction,1002,Whi,
,,,,,left_image_7_WHI.jpg,left,7,image,,,,,,,,,,,,,,,,,0,277,277,277,,,,,,,,,,,,,,,a,1.13400971103,0,2018_Oct_02_1047,60.038231236,Arrows_VVA_Direction,1002,Whi,
,,,,,left_image_6_WHI.jpg,left,6,image,,,,,,,,,,,,,,,,,0,278,278,278,,,,,,,,,,,,,,,f,5.03171591423,,2018_Oct_02_1047,60.038231236,Arrows_VVA_Direction,1002,Whi,
,,,,,right_image_11_WHI.jpg,right,11,image,,,,,,,,,,,,,,,,,0,279,279,279,,,,,,,,,,,,,,,a,1.68373511852,0,2018_Oct_02_1047,60.038231236,Arrows_VVA_Direction,1002,Whi,
,,,,,right_schema_2_WHI.jpg,right,2,schema,,,,,,,,,,,,,,,,,0,280,280,280,,,,,,,,,,,,,,,f,4.7820609677,,2018_Oct_02_1047,60.038231236,Arrows_VVA_Direction,1002,Whi,
,,,,,left_schema_4_WHI.jpg,left,4,schema,,,,,,,,,,,,,,,,,0,281,281,281,,,,,,,,,,,,,,,a,1.36732699467,0,2018_Oct_02_1047,60.038231236,Arrows_VVA_Direction,1002,Whi,
,,,,,ahead_schema_2_WHI.jpg,ahead,2,schema,,,,,,,,,,,,,,,,,0,282,282,282,,,,,,,,,,,,,,,f,1.41688662478,,2018_Oct_02_1047,60.038231236,Arrows_VVA_Direction,1002,Whi,
,,,,,ahead_schema_15_WHI.jpg,ahead,15,schema,,,,,,,,,,,,,,,,,0,283,283,283,,,,,,,,,,,,,,,f,1.45058205044,0,2018_Oct_02_1047,60.038231236,Arrows_VVA_Direction,1002,Whi,
,,,,,ahead_schema_4_WHI.jpg,ahead,4,schema,,,,,,,,,,,,,,,,,0,284,284,284,,,,,,,,,,,,,,,f,1.28440661735,,2018_Oct_02_1047,60.038231236,Arrows_VVA_Direction,1002,Whi,
,,,,,ahead_schema_17_WHI.jpg,ahead,17,schema,,,,,,,,,,,,,,,,,0,285,285,285,,,,,,,,,,,,,,,f,1.10120319132,0,2018_Oct_02_1047,60.038231236,Arrows_VVA_Direction,1002,Whi,
,,,,,left_schema_7_WHI.jpg,left,7,schema,,,,,,,,,,,,,,,,,0,286,286,286,,,,,,,,,,,,,,,f,1.13429084092,,2018_Oct_02_1047,60.038231236,Arrows_VVA_Direction,1002,Whi,
,,,,,left_schema_16_WHI.jpg,left,16,schema,,,,,,,,,,,,,,,,,0,287,287,287,,,,,,,,,,,,,,,f,1.35094381552,0,2018_Oct_02_1047,60.038231236,Arrows_VVA_Direction,1002,Whi,
,,,,,right_schema_8_WHI.jpg,right,8,schema,,,,,,,,,,,,,,,,,0,288,288,288,,,,,,,,,,,,,,,f,1.10135758964,,2018_Oct_02_1047,60.038231236,Arrows_VVA_Direction,1002,Whi,
,,,,,right_schema_15_WHI.jpg,right,15,schema,,,,,,,,,,,,,,,,,0,289,289,289,,,,,,,,,,,,,,,f,1.10123755164,0,2018_Oct_02_1047,60.038231236,Arrows_VVA_Direction,1002,Whi,
,,,,,ahead_schema_3_WHI.jpg,ahead,3,schema,,,,,,,,,,,,,,,,,0,290,290,290,,,,,,,,,,,,,,,f,1.03442591714,,2018_Oct_02_1047,60.038231236,Arrows_VVA_Direction,1002,Whi,
,,,,,left_schema_19_WHI.jpg,left,19,schema,,,,,,,,,,,,,,,,,0,291,291,291,,,,,,,,,,,,,,,a,1.08408907444,0,2018_Oct_02_1047,60.038231236,Arrows_VVA_Direction,1002,Whi,
,,,,,right_schema_11_WHI.jpg,right,11,schema,,,,,,,,,,,,,,,,,0,292,292,292,,,,,,,,,,,,,,,f,0.816588180853,,2018_Oct_02_1047,60.038231236,Arrows_VVA_Direction,1002,Whi,
,,,,,right_schema_1_WHI.jpg,right,1,schema,,,,,,,,,,,,,,,,,0,293,293,293,,,,,,,,,,,,,,,f,1.1674240068,0,2018_Oct_02_1047,60.038231236,Arrows_VVA_Direction,1002,Whi,
,,,,,left_schema_17_WHI.jpg,left,17,schema,,,,,,,,,,,,,,,,,0,294,294,294,,,,,,,,,,,,,,,f,0.93447308449,,2018_Oct_02_1047,60.038231236,Arrows_VVA_Direction,1002,Whi,
,,,,,right_schema_3_WHI.jpg,right,3,schema,,,,,,,,,,,,,,,,,0,295,295,295,,,,,,,,,,,,,,,a,1.00146990772,0,2018_Oct_02_1047,60.038231236,Arrows_VVA_Direction,1002,Whi,
,,,,,ahead_schema_12_WHI.jpg,ahead,12,schema,,,,,,,,,,,,,,,,,0,296,296,296,,,,,,,,,,,,,,,f,0.917587441437,,2018_Oct_02_1047,60.038231236,Arrows_VVA_Direction,1002,Whi,
,,,,,left_schema_6_WHI.jpg,left,6,schema,,,,,,,,,,,,,,,,,0,297,297,297,,,,,,,,,,,,,,,a,1.38346697415,0,2018_Oct_02_1047,60.038231236,Arrows_VVA_Direction,1002,Whi,
,,,,,right_schema_7_WHI.jpg,right,7,schema,,,,,,,,,,,,,,,,,0,298,298,298,,,,,,,,,,,,,,,f,1.06747965267,,2018_Oct_02_1047,60.038231236,Arrows_VVA_Direction,1002,Whi,
,,,,,ahead_schema_9_WHI.jpg,ahead,9,schema,,,,,,,,,,,,,,,,,0,299,299,299,,,,,,,,,,,,,,,a,1.00036502262,0,2018_Oct_02_1047,60.038231236,Arrows_VVA_Direction,1002,Whi,
,,,,,right_schema_19_WHI.jpg,right,19,schema,,,,,,,,,,,,,,,,,0,300,300,300,,,,,,,,,,,,,,,f,4.73192970682,,2018_Oct_02_1047,60.038231236,Arrows_VVA_Direction,1002,Whi,
,,,,,ahead_schema_13_WHI.jpg,ahead,13,schema,,,,,,,,,,,,,,,,,0,301,301,301,,,,,,,,,,,,,,,a,1.16711164025,0,2018_Oct_02_1047,60.038231236,Arrows_VVA_Direction,1002,Whi,
,,,,,ahead_schema_1_WHI.jpg,ahead,1,schema,,,,,,,,,,,,,,,,,0,302,302,302,,,,,,,,,,,,,,,f,1.36783436719,,2018_Oct_02_1047,60.038231236,Arrows_VVA_Direction,1002,Whi,
,,,,,right_schema_9_WHI.jpg,right,9,schema,,,,,,,,,,,,,,,,,0,303,303,303,,,,,,,,,,,,,,,a,1.33417464057,0,2018_Oct_02_1047,60.038231236,Arrows_VVA_Direction,1002,Whi,
,,,,,left_schema_21_WHI.jpg,left,21,schema,,,,,,,,,,,,,,,,,0,304,304,304,,,,,,,,,,,,,,,f,1.1335175106,,2018_Oct_02_1047,60.038231236,Arrows_VVA_Direction,1002,Whi,
,,,,,left_schema_20_WHI.jpg,left,20,schema,,,,,,,,,,,,,,,,,0,305,305,305,,,,,,,,,,,,,,,f,1.15099308019,0,2018_Oct_02_1047,60.038231236,Arrows_VVA_Direction,1002,Whi,
,,,,,left_schema_15_WHI.jpg,left,15,schema,,,,,,,,,,,,,,,,,0,306,306,306,,,,,,,,,,,,,,,f,1.33349368149,,2018_Oct_02_1047,60.038231236,Arrows_VVA_Direction,1002,Whi,
,,,,,right_schema_18_WHI.jpg,right,18,schema,,,,,,,,,,,,,,,,,0,307,307,307,,,,,,,,,,,,,,,a,1.06705706535,0,2018_Oct_02_1047,60.038231236,Arrows_VVA_Direction,1002,Whi,
,,,,,left_schema_8_WHI.jpg,left,8,schema,,,,,,,,,,,,,,,,,0,308,308,308,,,,,,,,,,,,,,,f,1.05079704787,,2018_Oct_02_1047,60.038231236,Arrows_VVA_Direction,1002,Whi,
,,,,,right_schema_13_WHI.jpg,right,13,schema,,,,,,,,,,,,,,,,,0,309,309,309,,,,,,,,,,,,,,,a,1.10077480291,0,2018_Oct_02_1047,60.038231236,Arrows_VVA_Direction,1002,Whi,
,,,,,ahead_schema_5_WHI.jpg,ahead,5,schema,,,,,,,,,,,,,,,,,0,310,310,310,,,,,,,,,,,,,,,f,0.934315562503,,2018_Oct_02_1047,60.038231236,Arrows_VVA_Direction,1002,Whi,
,,,,,left_schema_14_WHI.jpg,left,14,schema,,,,,,,,,,,,,,,,,0,311,311,311,,,,,,,,,,,,,,,a,1.23407276445,0,2018_Oct_02_1047,60.038231236,Arrows_VVA_Direction,1002,Whi,
,,,,,right_schema_5_WHI.jpg,right,5,schema,,,,,,,,,,,,,,,,,0,312,312,312,,,,,,,,,,,,,,,f,0.951176662471,,2018_Oct_02_1047,60.038231236,Arrows_VVA_Direction,1002,Whi,
,,,,,left_schema_12_WHI.jpg,left,12,schema,,,,,,,,,,,,,,,,,0,313,313,313,,,,,,,,,,,,,,,a,1.13413867379,0,2018_Oct_02_1047,60.038231236,Arrows_VVA_Direction,1002,Whi,
,,,,,right_schema_21_WHI.jpg,right,21,schema,,,,,,,,,,,,,,,,,0,314,314,314,,,,,,,,,,,,,,,f,1.03402341053,,2018_Oct_02_1047,60.038231236,Arrows_VVA_Direction,1002,Whi,
,,,,,ahead_schema_20_WHI.jpg,ahead,20,schema,,,,,,,,,,,,,,,,,0,315,315,315,,,,,,,,,,,,,,,a,1.00088801347,0,2018_Oct_02_1047,60.038231236,Arrows_VVA_Direction,1002,Whi,
,,,,,right_schema_4_WHI.jpg,right,4,schema,,,,,,,,,,,,,,,,,0,316,316,316,,,,,,,,,,,,,,,f,1.01787406006,,2018_Oct_02_1047,60.038231236,Arrows_VVA_Direction,1002,Whi,
,,,,,ahead_schema_10_WHI.jpg,ahead,10,schema,,,,,,,,,,,,,,,,,0,317,317,317,,,,,,,,,,,,,,,a,1.1340623671,0,2018_Oct_02_1047,60.038231236,Arrows_VVA_Direction,1002,Whi,
,,,,,ahead_schema_11_WHI.jpg,ahead,11,schema,,,,,,,,,,,,,,,,,0,318,318,318,,,,,,,,,,,,,,,f,1.31772720315,,2018_Oct_02_1047,60.038231236,Arrows_VVA_Direction,1002,Whi,
,,,,,left_schema_10_WHI.jpg,left,10,schema,,,,,,,,,,,,,,,,,0,319,319,319,,,,,,,,,,,,,,,a,1.05078455321,0,2018_Oct_02_1047,60.038231236,Arrows_VVA_Direction,1002,Whi,
,,,,,left_image_1_WHI.jpg,left,1,image,,,,,,,,,,,,,,,,,0,320,320,320,,,,,,,,,,,,,,,f,5.83180400159,,2018_Oct_02_1047,60.038231236,Arrows_VVA_Direction,1002,Whi,
,,,,,left_image_2_WHI.jpg,left,2,image,,,,,,,,,,,,,,,,,0,321,321,321,,,,,,,,,,,,,,,f,1.43404001058,0,2018_Oct_02_1047,60.038231236,Arrows_VVA_Direction,1002,Whi,
,,,,,ahead_image_7_WHI.jpg,ahead,7,image,,,,,,,,,,,,,,,,,0,322,322,322,,,,,,,,,,,,,,,f,1.15035674491,,2018_Oct_02_1047,60.038231236,Arrows_VVA_Direction,1002,Whi,
,,,,,right_image_1_WHI.jpg,right,1,image,,,,,,,,,,,,,,,,,0,323,323,323,,,,,,,,,,,,,,,a,1.76700579261,0,2018_Oct_02_1047,60.038231236,Arrows_VVA_Direction,1002,Whi,
,,,,,left_image_4_WHI.jpg,left,4,image,,,,,,,,,,,,,,,,,0,324,324,324,,,,,,,,,,,,,,,f,1.55013505391,,2018_Oct_02_1047,60.038231236,Arrows_VVA_Direction,1002,Whi,
,,,,,left_image_20_WHI.jpg,left,20,image,,,,,,,,,,,,,,,,,0,325,325,325,,,,,,,,,,,,,,,f,1.45055036754,0,2018_Oct_02_1047,60.038231236,Arrows_VVA_Direction,1002,Whi,
,,,,,left_image_5_WHI.jpg,left,5,image,,,,,,,,,,,,,,,,,0,326,326,326,,,,,,,,,,,,,,,f,1.35072025032,,2018_Oct_02_1047,60.038231236,Arrows_VVA_Direction,1002,Whi,
,,,,,left_image_16_WHI.jpg,left,16,image,,,,,,,,,,,,,,,,,0,327,327,327,,,,,,,,,,,,,,,f,2.24968350575,0,2018_Oct_02_1047,60.038231236,Arrows_VVA_Direction,1002,Whi,
,,,,,ahead_image_14_WHI.jpg,ahead,14,image,,,,,,,,,,,,,,,,,0,328,328,328,,,,,,,,,,,,,,,f,1.36719937063,,2018_Oct_02_1047,60.038231236,Arrows_VVA_Direction,1002,Whi,
,,,,,ahead_image_8_WHI.jpg,ahead,8,image,,,,,,,,,,,,,,,,,0,329,329,329,,,,,,,,,,,,,,,f,3.24911767606,0,2018_Oct_02_1047,60.038231236,Arrows_VVA_Direction,1002,Whi,
,,,,,right_image_6_WHI.jpg,right,6,image,,,,,,,,,,,,,,,,,0,330,330,330,,,,,,,,,,,,,,,f,1.3841711376,,2018_Oct_02_1047,60.038231236,Arrows_VVA_Direction,1002,Whi,
,,,,,right_image_7_WHI.jpg,right,7,image,,,,,,,,,,,,,,,,,0,331,331,331,,,,,,,,,,,,,,,f,1.40017590699,0,2018_Oct_02_1047,60.038231236,Arrows_VVA_Direction,1002,Whi,
,,,,,left_image_11_WHI.jpg,left,11,image,,,,,,,,,,,,,,,,,0,332,332,332,,,,,,,,,,,,,,,f,1.10102291119,,2018_Oct_02_1047,60.038231236,Arrows_VVA_Direction,1002,Whi,
,,,,,ahead_image_9_WHI.jpg,ahead,9,image,,,,,,,,,,,,,,,,,0,333,333,333,,,,,,,,,,,,,,,a,1.25101686467,0,2018_Oct_02_1047,60.038231236,Arrows_VVA_Direction,1002,Whi,
,,,,,ahead_image_21_WHI.jpg,ahead,21,image,,,,,,,,,,,,,,,,,0,334,334,334,,,,,,,,,,,,,,,f,1.43358707909,,2018_Oct_02_1047,60.038231236,Arrows_VVA_Direction,1002,Whi,
,,,,,right_image_8_WHI.jpg,right,8,image,,,,,,,,,,,,,,,,,0,335,335,335,,,,,,,,,,,,,,,a,1.13417258787,0,2018_Oct_02_1047,60.038231236,Arrows_VVA_Direction,1002,Whi,
,,,,,right_image_12_WHI.jpg,right,12,image,,,,,,,,,,,,,,,,,0,336,336,336,,,,,,,,,,,,,,,f,1.40031290203,,2018_Oct_02_1047,60.038231236,Arrows_VVA_Direction,1002,Whi,
,,,,,ahead_image_17_WHI.jpg,ahead,17,image,,,,,,,,,,,,,,,,,0,337,337,337,,,,,,,,,,,,,,,a,1.53398748838,0,2018_Oct_02_1047,60.038231236,Arrows_VVA_Direction,1002,Whi,
,,,,,right_image_19_WHI.jpg,right,19,image,,,,,,,,,,,,,,,,,0,338,338,338,,,,,,,,,,,,,,,f,2.03362581254,,2018_Oct_02_1047,60.038231236,Arrows_VVA_Direction,1002,Whi,
,,,,,right_image_2_WHI.jpg,right,2,image,,,,,,,,,,,,,,,,,0,339,339,339,,,,,,,,,,,,,,,f,1.25021452888,0,2018_Oct_02_1047,60.038231236,Arrows_VVA_Direction,1002,Whi,
,,,,,left_word_8_WHI.jpg,left,8,word,,,,,,,,,,,,,,,,,0,340,340,340,,,,,,,,,,,,,,,f,3.04997284642,,2018_Oct_02_1047,60.038231236,Arrows_VVA_Direction,1002,Whi,
,,,,,left_word_7_WHI.jpg,left,7,word,,,,,,,,,,,,,,,,,0,341,341,341,,,,,,,,,,,,,,,f,1.13415696954,0,2018_Oct_02_1047,60.038231236,Arrows_VVA_Direction,1002,Whi,
,,,,,ahead_word_18_WHI.jpg,ahead,18,word,,,,,,,,,,,,,,,,,0,342,342,342,,,,,,,,,,,,,,,f,1.06767822854,,2018_Oct_02_1047,60.038231236,Arrows_VVA_Direction,1002,Whi,
,,,,,ahead_word_5_WHI.jpg,ahead,5,word,,,,,,,,,,,,,,,,,0,343,343,343,,,,,,,,,,,,,,,f,1.03438932563,0,2018_Oct_02_1047,60.038231236,Arrows_VVA_Direction,1002,Whi,
,,,,,right_word_13_WHI.jpg,right,13,word,,,,,,,,,,,,,,,,,0,344,344,344,,,,,,,,,,,,,,,f,0.984212548478,,2018_Oct_02_1047,60.038231236,Arrows_VVA_Direction,1002,Whi,
,,,,,right_word_20_WHI.jpg,right,20,word,,,,,,,,,,,,,,,,,0,345,345,345,,,,,,,,,,,,,,,f,1.00089827694,0,2018_Oct_02_1047,60.038231236,Arrows_VVA_Direction,1002,Whi,
,,,,,ahead_word_2_WHI.jpg,ahead,2,word,,,,,,,,,,,,,,,,,0,346,346,346,,,,,,,,,,,,,,,f,0.984158999927,,2018_Oct_02_1047,60.038231236,Arrows_VVA_Direction,1002,Whi,
,,,,,ahead_word_19_WHI.jpg,ahead,19,word,,,,,,,,,,,,,,,,,0,347,347,347,,,,,,,,,,,,,,,f,1.03410105593,0,2018_Oct_02_1047,60.038231236,Arrows_VVA_Direction,1002,Whi,
,,,,,left_word_21_WHI.jpg,left,21,word,,,,,,,,,,,,,,,,,0,348,348,348,,,,,,,,,,,,,,,f,0.967488443553,,2018_Oct_02_1047,60.038231236,Arrows_VVA_Direction,1002,Whi,
,,,,,left_word_6_WHI.jpg,left,6,word,,,,,,,,,,,,,,,,,0,349,349,349,,,,,,,,,,,,,,,f,0.900660298257,0,2018_Oct_02_1047,60.038231236,Arrows_VVA_Direction,1002,Whi,
,,,,,left_word_16_WHI.jpg,left,16,word,,,,,,,,,,,,,,,,,0,350,350,350,,,,,,,,,,,,,,,f,0.934560100885,,2018_Oct_02_1047,60.038231236,Arrows_VVA_Direction,1002,Whi,
,,,,,right_word_14_WHI.jpg,right,14,word,,,,,,,,,,,,,,,,,0,351,351,351,,,,,,,,,,,,,,,a,0.900882970981,0,2018_Oct_02_1047,60.038231236,Arrows_VVA_Direction,1002,Whi,
,,,,,right_word_5_WHI.jpg,right,5,word,,,,,,,,,,,,,,,,,0,352,352,352,,,,,,,,,,,,,,,f,0.817247274267,,2018_Oct_02_1047,60.038231236,Arrows_VVA_Direction,1002,Whi,
,,,,,left_word_5_WHI.jpg,left,5,word,,,,,,,,,,,,,,,,,0,353,353,353,,,,,,,,,,,,,,,a,0.934187938457,0,2018_Oct_02_1047,60.038231236,Arrows_VVA_Direction,1002,Whi,
,,,,,left_word_17_WHI.jpg,left,17,word,,,,,,,,,,,,,,,,,0,354,354,354,,,,,,,,,,,,,,,f,0.917505333659,,2018_Oct_02_1047,60.038231236,Arrows_VVA_Direction,1002,Whi,
,,,,,ahead_word_11_WHI.jpg,ahead,11,word,,,,,,,,,,,,,,,,,0,355,355,355,,,,,,,,,,,,,,,a,0.951221732501,0,2018_Oct_02_1047,60.038231236,Arrows_VVA_Direction,1002,Whi,
,,,,,right_word_19_WHI.jpg,right,19,word,,,,,,,,,,,,,,,,,0,356,356,356,,,,,,,,,,,,,,,f,1.03451337977,,2018_Oct_02_1047,60.038231236,Arrows_VVA_Direction,1002,Whi,
,,,,,right_word_21_WHI.jpg,right,21,word,,,,,,,,,,,,,,,,,0,357,357,357,,,,,,,,,,,,,,,f,1.08409309059,0,2018_Oct_02_1047,60.038231236,Arrows_VVA_Direction,1002,Whi,
,,,,,ahead_word_17_WHI.jpg,ahead,17,word,,,,,,,,,,,,,,,,,0,358,358,358,,,,,,,,,,,,,,,f,0.967958778326,,2018_Oct_02_1047,60.038231236,Arrows_VVA_Direction,1002,Whi,
,,,,,ahead_word_20_WHI.jpg,ahead,20,word,,,,,,,,,,,,,,,,,0,359,359,359,,,,,,,,,,,,,,,f,1.10084441602,0,2018_Oct_02_1047,60.038231236,Arrows_VVA_Direction,1002,Whi,
