Stimulus,direction,number,format,Stimulus_Practice,Direction,Number,Background,Format,trials_5.thisRepN,trials_5.thisTrialN,trials_5.thisN,trials_5.thisIndex,repeat_spatial_practice.thisRepN,repeat_spatial_practice.thisTrialN,repeat_spatial_practice.thisN,repeat_spatial_practice.thisIndex,trials.thisRepN,trials.thisTrialN,trials.thisN,trials.thisIndex,trials_3.thisRepN,trials_3.thisTrialN,trials_3.thisN,trials_3.thisIndex,trials_4.thisRepN,trials_4.thisTrialN,trials_4.thisN,trials_4.thisIndex,trials_2.thisRepN,trials_2.thisTrialN,trials_2.thisN,trials_2.thisIndex,key_resp_7.keys,key_resp_7.rt,key_resp_4.keys,key_resp_4.rt,key_resp_3.keys,key_resp_3.rt,key_resp_6.keys,key_resp_6.rt,key_resp_11.keys,key_resp_11.rt,key_resp_2.keys,key_resp_2.rt,key_resp_12.keys,key_resp_12.rt,key_resp_14.keys,key_resp_14.rt,key_resp_13.keys,key_resp_13.rt,direction_response.keys,direction_response.rt,spatialdirection_correct,date,frameRate,expName,participant,Scr or Whi,
,,,,,,,,,,,,,,,,,,,,,,,,,,,,,,,,,d,24.7196007741,,,,,,,,,,,,,,,,,,,,2018_Dec_13_1434,59.9758323519,Arrows_VVA_Direction,1003,Whi,
,,,,,,,,,,,,,,,,,,,,,,,,,,,,,,,,,,,d,21.1740214027,,,,,,,,,,,,,,,,,,2018_Dec_13_1434,59.9758323519,Arrows_VVA_Direction,1003,Whi,
right_schema_1_WHI.jpg,right,1,schema,,,,,,0,0,0,0,,,,,,,,,,,,,,,,,,,,,,,,,d,15.9931158261,,,,,,,,,,,,,,,,2018_Dec_13_1434,59.9758323519,Arrows_VVA_Direction,1003,Whi,
right_schema_3_WHI.jpg,right,3,schema,,,,,,0,1,1,1,,,,,,,,,,,,,,,,,,,,,,,,,d,6.78184750397,,,,,,,,,,,,,,,,2018_Dec_13_1434,59.9758323519,Arrows_VVA_Direction,1003,Whi,
ahead_schema_1_WHI.jpg,ahead,1,schema,,,,,,0,2,2,2,,,,,,,,,,,,,,,,,,,,,,,,,d,7.13166144341,,,,,,,,,,,,,,,,2018_Dec_13_1434,59.9758323519,Arrows_VVA_Direction,1003,Whi,
ahead_schema_3_WHI.jpg,ahead,3,schema,,,,,,0,3,3,3,,,,,,,,,,,,,,,,,,,,,,,,,d,4.91521180649,,,,,,,,,,,,,,,,2018_Dec_13_1434,59.9758323519,Arrows_VVA_Direction,1003,Whi,
left_schema_1_WHI.jpg,left,1,schema,,,,,,0,4,4,4,,,,,,,,,,,,,,,,,,,,,,,,,d,3.81650086549,,,,,,,,,,,,,,,,2018_Dec_13_1434,59.9758323519,Arrows_VVA_Direction,1003,Whi,
left_schema_2_WHI.jpg,left,2,schema,,,,,,0,5,5,5,,,,,,,,,,,,,,,,,,,,,,,,,d,4.63247338055,,,,,,,,,,,,,,,,2018_Dec_13_1434,59.9758323519,Arrows_VVA_Direction,1003,Whi,
right_word_1_WHI.jpg,right,1,word,,,,,,0,6,6,6,,,,,,,,,,,,,,,,,,,,,,,,,d,26.8216513896,,,,,,,,,,,,,,,,2018_Dec_13_1434,59.9758323519,Arrows_VVA_Direction,1003,Whi,
right_word_2_WHI.jpg,right,2,word,,,,,,0,7,7,7,,,,,,,,,,,,,,,,,,,,,,,,,d,4.6663145818,,,,,,,,,,,,,,,,2018_Dec_13_1434,59.9758323519,Arrows_VVA_Direction,1003,Whi,
ahead_word_1_WHI.jpg,ahead,1,word,,,,,,0,8,8,8,,,,,,,,,,,,,,,,,,,,,,,,,d,9.54678199342,,,,,,,,,,,,,,,,2018_Dec_13_1434,59.9758323519,Arrows_VVA_Direction,1003,Whi,
ahead_word_2_WHI.jpg,ahead,2,word,,,,,,0,9,9,9,,,,,,,,,,,,,,,,,,,,,,,,,d,6.78136020781,,,,,,,,,,,,,,,,2018_Dec_13_1434,59.9758323519,Arrows_VVA_Direction,1003,Whi,
left_word_1_WHI.jpg,left,1,word,,,,,,0,10,10,10,,,,,,,,,,,,,,,,,,,,,,,,,d,5.84843572131,,,,,,,,,,,,,,,,2018_Dec_13_1434,59.9758323519,Arrows_VVA_Direction,1003,Whi,
left_word_2_WHI.jpg,left,2,word,,,,,,0,11,11,11,,,,,,,,,,,,,,,,,,,,,,,,,d,22.6568346187,,,,,,,,,,,,,,,,2018_Dec_13_1434,59.9758323519,Arrows_VVA_Direction,1003,Whi,
right_image_1_WHI.jpg,right,1,image,,,,,,0,12,12,12,,,,,,,,,,,,,,,,,,,,,,,,,d,12.5952831338,,,,,,,,,,,,,,,,2018_Dec_13_1434,59.9758323519,Arrows_VVA_Direction,1003,Whi,
right_image_2_WHI.jpg,right,2,image,,,,,,0,13,13,13,,,,,,,,,,,,,,,,,,,,,,,,,d,5.33216685699,,,,,,,,,,,,,,,,2018_Dec_13_1434,59.9758323519,Arrows_VVA_Direction,1003,Whi,
ahead_image_1_WHI.jpg,ahead,1,image,,,,,,0,14,14,14,,,,,,,,,,,,,,,,,,,,,,,,,d,6.06516113572,,,,,,,,,,,,,,,,2018_Dec_13_1434,59.9758323519,Arrows_VVA_Direction,1003,Whi,
ahead_image_2_WHI.jpg,ahead,2,image,,,,,,0,15,15,15,,,,,,,,,,,,,,,,,,,,,,,,,d,9.84701220962,,,,,,,,,,,,,,,,2018_Dec_13_1434,59.9758323519,Arrows_VVA_Direction,1003,Whi,
left_image_1_WHI.jpg,left,1,image,,,,,,0,16,16,16,,,,,,,,,,,,,,,,,,,,,,,,,d,12.0621601589,,,,,,,,,,,,,,,,2018_Dec_13_1434,59.9758323519,Arrows_VVA_Direction,1003,Whi,
left_image_2_WHI.jpg,left,2,image,,,,,,0,17,17,17,,,,,,,,,,,,,,,,,,,,,,,,,d,4.89930685245,,,,,,,,,,,,,,,,2018_Dec_13_1434,59.9758323519,Arrows_VVA_Direction,1003,Whi,
,,,,ahead_image_1_WHI.jpg,ahead,1,_WHI,image,,,,,0,0,0,0,0,0,0,0,,,,,,,,,,,,,,,,,,,d,35.0666533687,f,7.0649447084,,,,,,,,,,,,2018_Dec_13_1434,59.9758323519,Arrows_VVA_Direction,1003,Whi,
,,,,ahead_image_2_WHI.jpg,ahead,2,_WHI,image,,,,,0,0,0,0,0,1,1,1,,,,,,,,,,,,,,,,,,,,,f,2.66718252231,,,,,,,,,,,,2018_Dec_13_1434,59.9758323519,Arrows_VVA_Direction,1003,Whi,
,,,,left_image_1_WHI.jpg,left,1,_WHI,image,,,,,0,0,0,0,0,2,2,2,,,,,,,,,,,,,,,,,,,,,f,4.79897605332,,,,,,,,,,,,2018_Dec_13_1434,59.9758323519,Arrows_VVA_Direction,1003,Whi,
,,,,right_image_1_WHI.jpg,right,1,_WHI,image,,,,,0,0,0,0,0,3,3,3,,,,,,,,,,,,,,,,,,,,,a,5.23198733387,,,,,,,,,,,,2018_Dec_13_1434,59.9758323519,Arrows_VVA_Direction,1003,Whi,
,,,,right_image_2_WHI.jpg,right,2,_WHI,image,,,,,0,0,0,0,0,4,4,4,,,,,,,,,,,,,,,,,,,,,f,4.7662308222,,,,,,,,,,,,2018_Dec_13_1434,59.9758323519,Arrows_VVA_Direction,1003,Whi,
,,,,left_image_2_WHI.jpg,left,2,_WHI,image,,,,,0,0,0,0,0,5,5,5,,,,,,,,,,,,,,,,,,,,,a,3.49991632964,,,,,,,,,,,,2018_Dec_13_1434,59.9758323519,Arrows_VVA_Direction,1003,Whi,
,,,,left_image_3_WHI.jpg,left,3,_WHI,image,,,,,0,0,0,0,0,6,6,6,,,,,,,,,,,,,,,,,,,,,f,4.83242188424,,,,,,,,,,,,2018_Dec_13_1434,59.9758323519,Arrows_VVA_Direction,1003,Whi,
,,,,ahead_image_3_WHI.jpg,ahead,3,_WHI,image,,,,,0,0,0,0,0,7,7,7,,,,,,,,,,,,,,,,,,,,,a,5.18214612905,,,,,,,,,,,,2018_Dec_13_1434,59.9758323519,Arrows_VVA_Direction,1003,Whi,
,,,,left_word_1_WHI.jpg,left,1,_WHI,word,,,,,0,0,0,0,,,,,0,0,0,0,,,,,,,,,,,,,,,,,,,d,10.1112182092,f,6.31501108688,,,,,,,,2018_Dec_13_1434,59.9758323519,Arrows_VVA_Direction,1003,Whi,
,,,,left_word_2_WHI.jpg,left,2,_WHI,word,,,,,0,0,0,0,,,,,0,1,1,1,,,,,,,,,,,,,,,,,,,,,f,2.26757735715,,,,,,,,2018_Dec_13_1434,59.9758323519,Arrows_VVA_Direction,1003,Whi,
,,,,right_word_2_WHI.jpg,right,2,_WHI,word,,,,,0,0,0,0,,,,,0,2,2,2,,,,,,,,,,,,,,,,,,,,,f,2.48422557171,,,,,,,,2018_Dec_13_1434,59.9758323519,Arrows_VVA_Direction,1003,Whi,
,,,,ahead_word_2_WHI.jpg,ahead,2,_WHI,word,,,,,0,0,0,0,,,,,0,3,3,3,,,,,,,,,,,,,,,,,,,,,a,1.86747463226,,,,,,,,2018_Dec_13_1434,59.9758323519,Arrows_VVA_Direction,1003,Whi,
,,,,ahead_word_1_WHI.jpg,ahead,1,_WHI,word,,,,,0,0,0,0,,,,,0,4,4,4,,,,,,,,,,,,,,,,,,,,,f,2.15047767965,,,,,,,,2018_Dec_13_1434,59.9758323519,Arrows_VVA_Direction,1003,Whi,
,,,,right_word_1_WHI.jpg,right,1,_WHI,word,,,,,0,0,0,0,,,,,0,5,5,5,,,,,,,,,,,,,,,,,,,,,a,1.33435031864,,,,,,,,2018_Dec_13_1434,59.9758323519,Arrows_VVA_Direction,1003,Whi,
,,,,left_word_3_WHI.jpg,left,3,_WHI,word,,,,,0,0,0,0,,,,,0,6,6,6,,,,,,,,,,,,,,,,,,,,,f,2.34975369678,,,,,,,,2018_Dec_13_1434,59.9758323519,Arrows_VVA_Direction,1003,Whi,
,,,,right_word_3_WHI.jpg,right,3,_WHI,word,,,,,0,0,0,0,,,,,0,7,7,7,,,,,,,,,,,,,,,,,,,,,a,2.03364708602,,,,,,,,2018_Dec_13_1434,59.9758323519,Arrows_VVA_Direction,1003,Whi,
,,,,right_schema_3_WHI.jpg,right,3,_WHI,schema,,,,,0,0,0,0,,,,,,,,,0,0,0,0,,,,,,,,,,,,,,,d,4.59944701703,,,f,5.51577978319,,,,,,2018_Dec_13_1434,59.9758323519,Arrows_VVA_Direction,1003,Whi,
,,,,right_schema_2_WHI.jpg,right,2,_WHI,schema,,,,,0,0,0,0,,,,,,,,,0,1,1,1,,,,,,,,,,,,,,,,,,,f,1.23439570144,,,,,,2018_Dec_13_1434,59.9758323519,Arrows_VVA_Direction,1003,Whi,
,,,,left_schema_3_WHI.jpg,left,3,_WHI,schema,,,,,0,0,0,0,,,,,,,,,0,2,2,2,,,,,,,,,,,,,,,,,,,f,2.06752443286,,,,,,2018_Dec_13_1434,59.9758323519,Arrows_VVA_Direction,1003,Whi,
,,,,ahead_schema_1_WHI.jpg,ahead,1,_WHI,schema,,,,,0,0,0,0,,,,,,,,,0,3,3,3,,,,,,,,,,,,,,,,,,,a,2.06759270787,,,,,,2018_Dec_13_1434,59.9758323519,Arrows_VVA_Direction,1003,Whi,
,,,,ahead_schema_3_WHI.jpg,ahead,3,_WHI,schema,,,,,0,0,0,0,,,,,,,,,0,4,4,4,,,,,,,,,,,,,,,,,,,f,2.91792361856,,,,,,2018_Dec_13_1434,59.9758323519,Arrows_VVA_Direction,1003,Whi,
,,,,left_schema_1_WHI.jpg,left,1,_WHI,schema,,,,,0,0,0,0,,,,,,,,,0,5,5,5,,,,,,,,,,,,,,,,,,,a,1.81679003024,,,,,,2018_Dec_13_1434,59.9758323519,Arrows_VVA_Direction,1003,Whi,
,,,,ahead_schema_2_WHI.jpg,ahead,2,_WHI,schema,,,,,0,0,0,0,,,,,,,,,0,6,6,6,,,,,,,,,,,,,,,,,,,f,1.43430047342,,,,,,2018_Dec_13_1434,59.9758323519,Arrows_VVA_Direction,1003,Whi,
,,,,left_schema_2_WHI.jpg,left,2,_WHI,schema,,,,,0,0,0,0,,,,,,,,,0,7,7,7,,,,,,,,,,,,,,,,,,,a,1.40100145609,,,,,,2018_Dec_13_1434,59.9758323519,Arrows_VVA_Direction,1003,Whi,
,,,,right_schema_3_WHI.jpg,right,3,_WHI,schema,,,,,1,0,1,0,0,0,0,0,,,,,,,,,,,,,,,,,,,d,6.88156472047,f,3.78290241984,,,,,,,,,,,,2018_Dec_13_1434,59.9758323519,Arrows_VVA_Direction,1003,Whi,
,,,,right_schema_2_WHI.jpg,right,2,_WHI,schema,,,,,1,0,1,0,0,1,1,1,,,,,,,,,,,,,,,,,,,,,f,1.51769906963,,,,,,,,,,,,2018_Dec_13_1434,59.9758323519,Arrows_VVA_Direction,1003,Whi,
,,,,left_schema_3_WHI.jpg,left,3,_WHI,schema,,,,,1,0,1,0,0,2,2,2,,,,,,,,,,,,,,,,,,,,,f,2.28366705534,,,,,,,,,,,,2018_Dec_13_1434,59.9758323519,Arrows_VVA_Direction,1003,Whi,
,,,,ahead_schema_1_WHI.jpg,ahead,1,_WHI,schema,,,,,1,0,1,0,0,3,3,3,,,,,,,,,,,,,,,,,,,,,a,1.53441172153,,,,,,,,,,,,2018_Dec_13_1434,59.9758323519,Arrows_VVA_Direction,1003,Whi,
,,,,ahead_schema_3_WHI.jpg,ahead,3,_WHI,schema,,,,,1,0,1,0,0,4,4,4,,,,,,,,,,,,,,,,,,,,,f,1.8675964563,,,,,,,,,,,,2018_Dec_13_1434,59.9758323519,Arrows_VVA_Direction,1003,Whi,
,,,,left_schema_1_WHI.jpg,left,1,_WHI,schema,,,,,1,0,1,0,0,5,5,5,,,,,,,,,,,,,,,,,,,,,a,1.63397007591,,,,,,,,,,,,2018_Dec_13_1434,59.9758323519,Arrows_VVA_Direction,1003,Whi,
,,,,ahead_schema_2_WHI.jpg,ahead,2,_WHI,schema,,,,,1,0,1,0,0,6,6,6,,,,,,,,,,,,,,,,,,,,,f,1.43528800676,,,,,,,,,,,,2018_Dec_13_1434,59.9758323519,Arrows_VVA_Direction,1003,Whi,
,,,,left_schema_2_WHI.jpg,left,2,_WHI,schema,,,,,1,0,1,0,0,7,7,7,,,,,,,,,,,,,,,,,,,,,a,2.04972785937,,,,,,,,,,,,2018_Dec_13_1434,59.9758323519,Arrows_VVA_Direction,1003,Whi,
,,,,left_image_1_WHI.jpg,left,1,_WHI,image,,,,,1,0,1,0,,,,,0,0,0,0,,,,,,,,,,,,,,,,,,,d,4.41657663736,f,3.38326155532,,,,,,,,2018_Dec_13_1434,59.9758323519,Arrows_VVA_Direction,1003,Whi,
,,,,ahead_image_2_WHI.jpg,ahead,2,_WHI,image,,,,,1,0,1,0,,,,,0,1,1,1,,,,,,,,,,,,,,,,,,,,,a,1.73384124587,,,,,,,,2018_Dec_13_1434,59.9758323519,Arrows_VVA_Direction,1003,Whi,
,,,,right_image_3_WHI.jpg,right,3,_WHI,image,,,,,1,0,1,0,,,,,0,2,2,2,,,,,,,,,,,,,,,,,,,,,f,2.98253275304,,,,,,,,2018_Dec_13_1434,59.9758323519,Arrows_VVA_Direction,1003,Whi,
,,,,right_image_2_WHI.jpg,right,2,_WHI,image,,,,,1,0,1,0,,,,,0,3,3,3,,,,,,,,,,,,,,,,,,,,,f,3.14983196761,,,,,,,,2018_Dec_13_1434,59.9758323519,Arrows_VVA_Direction,1003,Whi,
,,,,left_image_3_WHI.jpg,left,3,_WHI,image,,,,,1,0,1,0,,,,,0,4,4,4,,,,,,,,,,,,,,,,,,,,,f,2.84998864314,,,,,,,,2018_Dec_13_1434,59.9758323519,Arrows_VVA_Direction,1003,Whi,
,,,,left_image_2_WHI.jpg,left,2,_WHI,image,,,,,1,0,1,0,,,,,0,5,5,5,,,,,,,,,,,,,,,,,,,,,f,3.56669196858,,,,,,,,2018_Dec_13_1434,59.9758323519,Arrows_VVA_Direction,1003,Whi,
,,,,right_image_1_WHI.jpg,right,1,_WHI,image,,,,,1,0,1,0,,,,,0,6,6,6,,,,,,,,,,,,,,,,,,,,,f,6.63187363143,,,,,,,,2018_Dec_13_1434,59.9758323519,Arrows_VVA_Direction,1003,Whi,
,,,,ahead_image_3_WHI.jpg,ahead,3,_WHI,image,,,,,1,0,1,0,,,,,0,7,7,7,,,,,,,,,,,,,,,,,,,,,a,3.44914783414,,,,,,,,2018_Dec_13_1434,59.9758323519,Arrows_VVA_Direction,1003,Whi,
,,,,left_word_1_WHI.jpg,left,1,_WHI,word,,,,,1,0,1,0,,,,,,,,,0,0,0,0,,,,,,,,,,,,,,,d,3.81570700113,,,f,3.13369719898,,,,,,2018_Dec_13_1434,59.9758323519,Arrows_VVA_Direction,1003,Whi,
,,,,left_word_2_WHI.jpg,left,2,_WHI,word,,,,,1,0,1,0,,,,,,,,,0,1,1,1,,,,,,,,,,,,,,,,,,,f,1.4673817247,,,,,,2018_Dec_13_1434,59.9758323519,Arrows_VVA_Direction,1003,Whi,
,,,,right_word_2_WHI.jpg,right,2,_WHI,word,,,,,1,0,1,0,,,,,,,,,0,2,2,2,,,,,,,,,,,,,,,,,,,f,1.50072313501,,,,,,2018_Dec_13_1434,59.9758323519,Arrows_VVA_Direction,1003,Whi,
,,,,ahead_word_2_WHI.jpg,ahead,2,_WHI,word,,,,,1,0,1,0,,,,,,,,,0,3,3,3,,,,,,,,,,,,,,,,,,,a,1.91720516909,,,,,,2018_Dec_13_1434,59.9758323519,Arrows_VVA_Direction,1003,Whi,
,,,,ahead_word_1_WHI.jpg,ahead,1,_WHI,word,,,,,1,0,1,0,,,,,,,,,0,4,4,4,,,,,,,,,,,,,,,,,,,f,1.98436011365,,,,,,2018_Dec_13_1434,59.9758323519,Arrows_VVA_Direction,1003,Whi,
,,,,right_word_1_WHI.jpg,right,1,_WHI,word,,,,,1,0,1,0,,,,,,,,,0,5,5,5,,,,,,,,,,,,,,,,,,,a,1.55117346003,,,,,,2018_Dec_13_1434,59.9758323519,Arrows_VVA_Direction,1003,Whi,
,,,,left_word_3_WHI.jpg,left,3,_WHI,word,,,,,1,0,1,0,,,,,,,,,0,6,6,6,,,,,,,,,,,,,,,,,,,f,2.20006408034,,,,,,2018_Dec_13_1434,59.9758323519,Arrows_VVA_Direction,1003,Whi,
,,,,right_word_3_WHI.jpg,right,3,_WHI,word,,,,,1,0,1,0,,,,,,,,,0,7,7,7,,,,,,,,,,,,,,,,,,,a,1.63411867447,,,,,,2018_Dec_13_1434,59.9758323519,Arrows_VVA_Direction,1003,Whi,
,,,,,,,,,,,,,,,,,,,,,,,,,,,,,,,,,,,,,,,,,,,,,,,,,d,23.3556008045,,,,2018_Dec_13_1434,59.9758323519,Arrows_VVA_Direction,1003,Whi,
right_schema_7_WHI.jpg,right,7,schema,,,,,,,,,,,,,,,,,,,,,,,,,,0,0,0,0,,,,,,,,,,,,,,,,,,,f,3.69982556404,,2018_Dec_13_1434,59.9758323519,Arrows_VVA_Direction,1003,Whi,
ahead_schema_1_WHI.jpg,ahead,1,schema,,,,,,,,,,,,,,,,,,,,,,,,,,0,1,1,1,,,,,,,,,,,,,,,,,,,a,1.36804604502,0,2018_Dec_13_1434,59.9758323519,Arrows_VVA_Direction,1003,Whi,
right_schema_20_WHI.jpg,right,20,schema,,,,,,,,,,,,,,,,,,,,,,,,,,0,2,2,2,,,,,,,,,,,,,,,,,,,f,2.33381527459,,2018_Dec_13_1434,59.9758323519,Arrows_VVA_Direction,1003,Whi,
right_schema_11_WHI.jpg,right,11,schema,,,,,,,,,,,,,,,,,,,,,,,,,,0,3,3,3,,,,,,,,,,,,,,,,,,,f,0.0170874950968,0,2018_Dec_13_1434,59.9758323519,Arrows_VVA_Direction,1003,Whi,
ahead_schema_15_WHI.jpg,ahead,15,schema,,,,,,,,,,,,,,,,,,,,,,,,,,0,4,4,4,,,,,,,,,,,,,,,,,,,f,7.43046279302,,2018_Dec_13_1434,59.9758323519,Arrows_VVA_Direction,1003,Whi,
ahead_schema_4_WHI.jpg,ahead,4,schema,,,,,,,,,,,,,,,,,,,,,,,,,,0,5,5,5,,,,,,,,,,,,,,,,,,,f,1.75044679971,0,2018_Dec_13_1434,59.9758323519,Arrows_VVA_Direction,1003,Whi,
left_schema_2_WHI.jpg,left,2,schema,,,,,,,,,,,,,,,,,,,,,,,,,,0,6,6,6,,,,,,,,,,,,,,,,,,,f,1.8167012281,,2018_Dec_13_1434,59.9758323519,Arrows_VVA_Direction,1003,Whi,
ahead_schema_9_WHI.jpg,ahead,9,schema,,,,,,,,,,,,,,,,,,,,,,,,,,0,7,7,7,,,,,,,,,,,,,,,,,,,a,1.78382926428,0,2018_Dec_13_1434,59.9758323519,Arrows_VVA_Direction,1003,Whi,
ahead_schema_16_WHI.jpg,ahead,16,schema,,,,,,,,,,,,,,,,,,,,,,,,,,0,8,8,8,,,,,,,,,,,,,,,,,,,f,1.20097887625,,2018_Dec_13_1434,59.9758323519,Arrows_VVA_Direction,1003,Whi,
right_schema_4_WHI.jpg,right,4,schema,,,,,,,,,,,,,,,,,,,,,,,,,,0,9,9,9,,,,,,,,,,,,,,,,,,,a,1.80061822354,0,2018_Dec_13_1434,59.9758323519,Arrows_VVA_Direction,1003,Whi,
ahead_schema_17_WHI.jpg,ahead,17,schema,,,,,,,,,,,,,,,,,,,,,,,,,,0,10,10,10,,,,,,,,,,,,,,,,,,,f,1.4508979949,,2018_Dec_13_1434,59.9758323519,Arrows_VVA_Direction,1003,Whi,
ahead_schema_6_WHI.jpg,ahead,6,schema,,,,,,,,,,,,,,,,,,,,,,,,,,0,11,11,11,,,,,,,,,,,,,,,,,,,f,1.25048272218,0,2018_Dec_13_1434,59.9758323519,Arrows_VVA_Direction,1003,Whi,
left_schema_7_WHI.jpg,left,7,schema,,,,,,,,,,,,,,,,,,,,,,,,,,0,12,12,12,,,,,,,,,,,,,,,,,,,f,1.61771035955,,2018_Dec_13_1434,59.9758323519,Arrows_VVA_Direction,1003,Whi,
ahead_schema_10_WHI.jpg,ahead,10,schema,,,,,,,,,,,,,,,,,,,,,,,,,,0,13,13,13,,,,,,,,,,,,,,,,,,,a,1.6506804966,0,2018_Dec_13_1434,59.9758323519,Arrows_VVA_Direction,1003,Whi,
right_schema_16_WHI.jpg,right,16,schema,,,,,,,,,,,,,,,,,,,,,,,,,,0,14,14,14,,,,,,,,,,,,,,,,,,,f,2.10035311122,,2018_Dec_13_1434,59.9758323519,Arrows_VVA_Direction,1003,Whi,
left_schema_3_WHI.jpg,left,3,schema,,,,,,,,,,,,,,,,,,,,,,,,,,0,15,15,15,,,,,,,,,,,,,,,,,,,a,1.51728317217,0,2018_Dec_13_1434,59.9758323519,Arrows_VVA_Direction,1003,Whi,
left_schema_10_WHI.jpg,left,10,schema,,,,,,,,,,,,,,,,,,,,,,,,,,0,16,16,16,,,,,,,,,,,,,,,,,,,f,2.10098231231,,2018_Dec_13_1434,59.9758323519,Arrows_VVA_Direction,1003,Whi,
left_schema_1_WHI.jpg,left,1,schema,,,,,,,,,,,,,,,,,,,,,,,,,,0,17,17,17,,,,,,,,,,,,,,,,,,,f,1.20084768113,0,2018_Dec_13_1434,59.9758323519,Arrows_VVA_Direction,1003,Whi,
ahead_schema_7_WHI.jpg,ahead,7,schema,,,,,,,,,,,,,,,,,,,,,,,,,,0,18,18,18,,,,,,,,,,,,,,,,,,,f,2.00096566749,,2018_Dec_13_1434,59.9758323519,Arrows_VVA_Direction,1003,Whi,
left_schema_14_WHI.jpg,left,14,schema,,,,,,,,,,,,,,,,,,,,,,,,,,0,19,19,19,,,,,,,,,,,,,,,,,,,a,1.28452919471,0,2018_Dec_13_1434,59.9758323519,Arrows_VVA_Direction,1003,Whi,
right_word_7_WHI.jpg,right,7,word,,,,,,,,,,,,,,,,,,,,,,,,,,0,20,20,20,,,,,,,,,,,,,,,,,,,f,2.00040072523,,2018_Dec_13_1434,59.9758323519,Arrows_VVA_Direction,1003,Whi,
left_word_9_WHI.jpg,left,9,word,,,,,,,,,,,,,,,,,,,,,,,,,,0,21,21,21,,,,,,,,,,,,,,,,,,,a,1.717292811,0,2018_Dec_13_1434,59.9758323519,Arrows_VVA_Direction,1003,Whi,
right_word_10_WHI.jpg,right,10,word,,,,,,,,,,,,,,,,,,,,,,,,,,0,22,22,22,,,,,,,,,,,,,,,,,,,f,2.48371150104,,2018_Dec_13_1434,59.9758323519,Arrows_VVA_Direction,1003,Whi,
left_word_4_WHI.jpg,left,4,word,,,,,,,,,,,,,,,,,,,,,,,,,,0,23,23,23,,,,,,,,,,,,,,,,,,,a,1.53419395547,0,2018_Dec_13_1434,59.9758323519,Arrows_VVA_Direction,1003,Whi,
ahead_word_16_WHI.jpg,ahead,16,word,,,,,,,,,,,,,,,,,,,,,,,,,,0,24,24,24,,,,,,,,,,,,,,,,,,,f,2.13384044264,,2018_Dec_13_1434,59.9758323519,Arrows_VVA_Direction,1003,Whi,
ahead_word_12_WHI.jpg,ahead,12,word,,,,,,,,,,,,,,,,,,,,,,,,,,0,25,25,25,,,,,,,,,,,,,,,,,,,f,2.38337177707,0,2018_Dec_13_1434,59.9758323519,Arrows_VVA_Direction,1003,Whi,
right_word_3_WHI.jpg,right,3,word,,,,,,,,,,,,,,,,,,,,,,,,,,0,26,26,26,,,,,,,,,,,,,,,,,,,f,1.55096640379,,2018_Dec_13_1434,59.9758323519,Arrows_VVA_Direction,1003,Whi,
left_word_13_WHI.jpg,left,13,word,,,,,,,,,,,,,,,,,,,,,,,,,,0,27,27,27,,,,,,,,,,,,,,,,,,,a,3.76624777939,0,2018_Dec_13_1434,59.9758323519,Arrows_VVA_Direction,1003,Whi,
left_word_14_WHI.jpg,left,14,word,,,,,,,,,,,,,,,,,,,,,,,,,,0,28,28,28,,,,,,,,,,,,,,,,,,,f,2.63397944699,,2018_Dec_13_1434,59.9758323519,Arrows_VVA_Direction,1003,Whi,
left_word_18_WHI.jpg,left,18,word,,,,,,,,,,,,,,,,,,,,,,,,,,0,29,29,29,,,,,,,,,,,,,,,,,,,f,1.91662996327,0,2018_Dec_13_1434,59.9758323519,Arrows_VVA_Direction,1003,Whi,
ahead_word_4_WHI.jpg,ahead,4,word,,,,,,,,,,,,,,,,,,,,,,,,,,0,30,30,30,,,,,,,,,,,,,,,,,,,f,2.05069308062,,2018_Dec_13_1434,59.9758323519,Arrows_VVA_Direction,1003,Whi,
right_word_2_WHI.jpg,right,2,word,,,,,,,,,,,,,,,,,,,,,,,,,,0,31,31,31,,,,,,,,,,,,,,,,,,,a,1.45125007977,0,2018_Dec_13_1434,59.9758323519,Arrows_VVA_Direction,1003,Whi,
left_word_19_WHI.jpg,left,19,word,,,,,,,,,,,,,,,,,,,,,,,,,,0,32,32,32,,,,,,,,,,,,,,,,,,,f,2.35077871444,,2018_Dec_13_1434,59.9758323519,Arrows_VVA_Direction,1003,Whi,
left_word_11_WHI.jpg,left,11,word,,,,,,,,,,,,,,,,,,,,,,,,,,0,33,33,33,,,,,,,,,,,,,,,,,,,f,1.73337179939,0,2018_Dec_13_1434,59.9758323519,Arrows_VVA_Direction,1003,Whi,
left_word_12_WHI.jpg,left,12,word,,,,,,,,,,,,,,,,,,,,,,,,,,0,34,34,34,,,,,,,,,,,,,,,,,,,f,2.06711255158,,2018_Dec_13_1434,59.9758323519,Arrows_VVA_Direction,1003,Whi,
ahead_word_15_WHI.jpg,ahead,15,word,,,,,,,,,,,,,,,,,,,,,,,,,,0,35,35,35,,,,,,,,,,,,,,,,,,,a,1.30123470673,0,2018_Dec_13_1434,59.9758323519,Arrows_VVA_Direction,1003,Whi,
left_word_2_WHI.jpg,left,2,word,,,,,,,,,,,,,,,,,,,,,,,,,,0,36,36,36,,,,,,,,,,,,,,,,,,,f,1.81703635577,,2018_Dec_13_1434,59.9758323519,Arrows_VVA_Direction,1003,Whi,
left_word_15_WHI.jpg,left,15,word,,,,,,,,,,,,,,,,,,,,,,,,,,0,37,37,37,,,,,,,,,,,,,,,,,,,f,1.91737697222,0,2018_Dec_13_1434,59.9758323519,Arrows_VVA_Direction,1003,Whi,
ahead_word_11_WHI.jpg,ahead,11,word,,,,,,,,,,,,,,,,,,,,,,,,,,0,38,38,38,,,,,,,,,,,,,,,,,,,f,1.91677142195,,2018_Dec_13_1434,59.9758323519,Arrows_VVA_Direction,1003,Whi,
ahead_word_7_WHI.jpg,ahead,7,word,,,,,,,,,,,,,,,,,,,,,,,,,,0,39,39,39,,,,,,,,,,,,,,,,,,,f,1.63347831733,0,2018_Dec_13_1434,59.9758323519,Arrows_VVA_Direction,1003,Whi,
left_image_9_WHI.jpg,left,9,image,,,,,,,,,,,,,,,,,,,,,,,,,,0,40,40,40,,,,,,,,,,,,,,,,,,,f,6.18230811486,,2018_Dec_13_1434,59.9758323519,Arrows_VVA_Direction,1003,Whi,
right_image_17_WHI.jpg,right,17,image,,,,,,,,,,,,,,,,,,,,,,,,,,0,41,41,41,,,,,,,,,,,,,,,,,,,a,3.08315003947,0,2018_Dec_13_1434,59.9758323519,Arrows_VVA_Direction,1003,Whi,
left_image_5_WHI.jpg,left,5,image,,,,,,,,,,,,,,,,,,,,,,,,,,0,42,42,42,,,,,,,,,,,,,,,,,,,f,2.80008764191,,2018_Dec_13_1434,59.9758323519,Arrows_VVA_Direction,1003,Whi,
ahead_image_4_WHI.jpg,ahead,4,image,,,,,,,,,,,,,,,,,,,,,,,,,,0,43,43,43,,,,,,,,,,,,,,,,,,,a,1.60069917182,0,2018_Dec_13_1434,59.9758323519,Arrows_VVA_Direction,1003,Whi,
left_image_10_WHI.jpg,left,10,image,,,,,,,,,,,,,,,,,,,,,,,,,,0,44,44,44,,,,,,,,,,,,,,,,,,,f,4.11606395004,,2018_Dec_13_1434,59.9758323519,Arrows_VVA_Direction,1003,Whi,
left_image_15_WHI.jpg,left,15,image,,,,,,,,,,,,,,,,,,,,,,,,,,0,45,45,45,,,,,,,,,,,,,,,,,,,f,1.90078659061,0,2018_Dec_13_1434,59.9758323519,Arrows_VVA_Direction,1003,Whi,
ahead_image_2_WHI.jpg,ahead,2,image,,,,,,,,,,,,,,,,,,,,,,,,,,0,46,46,46,,,,,,,,,,,,,,,,,,,f,2.96667420815,,2018_Dec_13_1434,59.9758323519,Arrows_VVA_Direction,1003,Whi,
left_image_8_WHI.jpg,left,8,image,,,,,,,,,,,,,,,,,,,,,,,,,,0,47,47,47,,,,,,,,,,,,,,,,,,,a,1.45092833935,0,2018_Dec_13_1434,59.9758323519,Arrows_VVA_Direction,1003,Whi,
ahead_image_16_WHI.jpg,ahead,16,image,,,,,,,,,,,,,,,,,,,,,,,,,,0,48,48,48,,,,,,,,,,,,,,,,,,,f,3.49973649415,,2018_Dec_13_1434,59.9758323519,Arrows_VVA_Direction,1003,Whi,
left_image_18_WHI.jpg,left,18,image,,,,,,,,,,,,,,,,,,,,,,,,,,0,49,49,49,,,,,,,,,,,,,,,,,,,a,1.8342711107,0,2018_Dec_13_1434,59.9758323519,Arrows_VVA_Direction,1003,Whi,
right_image_19_WHI.jpg,right,19,image,,,,,,,,,,,,,,,,,,,,,,,,,,0,50,50,50,,,,,,,,,,,,,,,,,,,f,3.94933503262,,2018_Dec_13_1434,59.9758323519,Arrows_VVA_Direction,1003,Whi,
right_image_18_WHI.jpg,right,18,image,,,,,,,,,,,,,,,,,,,,,,,,,,0,51,51,51,,,,,,,,,,,,,,,,,,,f,1.31755154206,0,2018_Dec_13_1434,59.9758323519,Arrows_VVA_Direction,1003,Whi,
left_image_21_WHI.jpg,left,21,image,,,,,,,,,,,,,,,,,,,,,,,,,,0,52,52,52,,,,,,,,,,,,,,,,,,,f,10.7625323693,,2018_Dec_13_1434,59.9758323519,Arrows_VVA_Direction,1003,Whi,
left_image_13_WHI.jpg,left,13,image,,,,,,,,,,,,,,,,,,,,,,,,,,0,53,53,53,,,,,,,,,,,,,,,,,,,f,2.50064995134,0,2018_Dec_13_1434,59.9758323519,Arrows_VVA_Direction,1003,Whi,
ahead_image_9_WHI.jpg,ahead,9,image,,,,,,,,,,,,,,,,,,,,,,,,,,0,54,54,54,,,,,,,,,,,,,,,,,,,f,2.2337446345,,2018_Dec_13_1434,59.9758323519,Arrows_VVA_Direction,1003,Whi,
right_image_5_WHI.jpg,right,5,image,,,,,,,,,,,,,,,,,,,,,,,,,,0,55,55,55,,,,,,,,,,,,,,,,,,,a,2.23392223878,0,2018_Dec_13_1434,59.9758323519,Arrows_VVA_Direction,1003,Whi,
ahead_image_6_WHI.jpg,ahead,6,image,,,,,,,,,,,,,,,,,,,,,,,,,,0,56,56,56,,,,,,,,,,,,,,,,,,,f,2.76723442024,,2018_Dec_13_1434,59.9758323519,Arrows_VVA_Direction,1003,Whi,
ahead_image_5_WHI.jpg,ahead,5,image,,,,,,,,,,,,,,,,,,,,,,,,,,0,57,57,57,,,,,,,,,,,,,,,,,,,f,1.70026555856,0,2018_Dec_13_1434,59.9758323519,Arrows_VVA_Direction,1003,Whi,
right_image_14_WHI.jpg,right,14,image,,,,,,,,,,,,,,,,,,,,,,,,,,0,58,58,58,,,,,,,,,,,,,,,,,,,f,3.31654214286,,2018_Dec_13_1434,59.9758323519,Arrows_VVA_Direction,1003,Whi,
right_image_21_WHI.jpg,right,21,image,,,,,,,,,,,,,,,,,,,,,,,,,,0,59,59,59,,,,,,,,,,,,,,,,,,,f,1.73389345617,0,2018_Dec_13_1434,59.9758323519,Arrows_VVA_Direction,1003,Whi,
left_image_14_WHI.jpg,left,14,image,,,,,,,,,,,,,,,,,,,,,,,,,,0,60,60,60,,,,,,,,,,,,,,,,,,,f,5.54903149888,,2018_Dec_13_1434,59.9758323519,Arrows_VVA_Direction,1003,Whi,
ahead_image_8_WHI.jpg,ahead,8,image,,,,,,,,,,,,,,,,,,,,,,,,,,0,61,61,61,,,,,,,,,,,,,,,,,,,a,2.116355346,0,2018_Dec_13_1434,59.9758323519,Arrows_VVA_Direction,1003,Whi,
left_image_3_WHI.jpg,left,3,image,,,,,,,,,,,,,,,,,,,,,,,,,,0,62,62,62,,,,,,,,,,,,,,,,,,,f,2.65052475817,,2018_Dec_13_1434,59.9758323519,Arrows_VVA_Direction,1003,Whi,
right_image_11_WHI.jpg,right,11,image,,,,,,,,,,,,,,,,,,,,,,,,,,0,63,63,63,,,,,,,,,,,,,,,,,,,f,2.96711241771,1,2018_Dec_13_1434,59.9758323519,Arrows_VVA_Direction,1003,Whi,
left_image_20_WHI.jpg,left,20,image,,,,,,,,,,,,,,,,,,,,,,,,,,0,64,64,64,,,,,,,,,,,,,,,,,,,f,2.11742007919,,2018_Dec_13_1434,59.9758323519,Arrows_VVA_Direction,1003,Whi,
left_image_2_WHI.jpg,left,2,image,,,,,,,,,,,,,,,,,,,,,,,,,,0,65,65,65,,,,,,,,,,,,,,,,,,,f,5.16597878477,0,2018_Dec_13_1434,59.9758323519,Arrows_VVA_Direction,1003,Whi,
ahead_image_20_WHI.jpg,ahead,20,image,,,,,,,,,,,,,,,,,,,,,,,,,,0,66,66,66,,,,,,,,,,,,,,,,,,,f,2.88372720875,,2018_Dec_13_1434,59.9758323519,Arrows_VVA_Direction,1003,Whi,
left_image_7_WHI.jpg,left,7,image,,,,,,,,,,,,,,,,,,,,,,,,,,0,67,67,67,,,,,,,,,,,,,,,,,,,a,1.48336030866,0,2018_Dec_13_1434,59.9758323519,Arrows_VVA_Direction,1003,Whi,
ahead_image_7_WHI.jpg,ahead,7,image,,,,,,,,,,,,,,,,,,,,,,,,,,0,68,68,68,,,,,,,,,,,,,,,,,,,f,2.76684083488,,2018_Dec_13_1434,59.9758323519,Arrows_VVA_Direction,1003,Whi,
right_image_20_WHI.jpg,right,20,image,,,,,,,,,,,,,,,,,,,,,,,,,,0,69,69,69,,,,,,,,,,,,,,,,,,,a,1.71736287098,0,2018_Dec_13_1434,59.9758323519,Arrows_VVA_Direction,1003,Whi,
ahead_image_14_WHI.jpg,ahead,14,image,,,,,,,,,,,,,,,,,,,,,,,,,,0,70,70,70,,,,,,,,,,,,,,,,,,,f,2.20037332598,,2018_Dec_13_1434,59.9758323519,Arrows_VVA_Direction,1003,Whi,
ahead_image_17_WHI.jpg,ahead,17,image,,,,,,,,,,,,,,,,,,,,,,,,,,0,71,71,71,,,,,,,,,,,,,,,,,,,f,1.68418076903,0,2018_Dec_13_1434,59.9758323519,Arrows_VVA_Direction,1003,Whi,
right_image_16_WHI.jpg,right,16,image,,,,,,,,,,,,,,,,,,,,,,,,,,0,72,72,72,,,,,,,,,,,,,,,,,,,f,3.76721880178,,2018_Dec_13_1434,59.9758323519,Arrows_VVA_Direction,1003,Whi,
ahead_image_18_WHI.jpg,ahead,18,image,,,,,,,,,,,,,,,,,,,,,,,,,,0,73,73,73,,,,,,,,,,,,,,,,,,,a,1.85069325911,0,2018_Dec_13_1434,59.9758323519,Arrows_VVA_Direction,1003,Whi,
right_image_7_WHI.jpg,right,7,image,,,,,,,,,,,,,,,,,,,,,,,,,,0,74,74,74,,,,,,,,,,,,,,,,,,,f,2.91676160463,,2018_Dec_13_1434,59.9758323519,Arrows_VVA_Direction,1003,Whi,
left_image_19_WHI.jpg,left,19,image,,,,,,,,,,,,,,,,,,,,,,,,,,0,75,75,75,,,,,,,,,,,,,,,,,,,f,1.98388754347,1,2018_Dec_13_1434,59.9758323519,Arrows_VVA_Direction,1003,Whi,
ahead_image_21_WHI.jpg,ahead,21,image,,,,,,,,,,,,,,,,,,,,,,,,,,0,76,76,76,,,,,,,,,,,,,,,,,,,f,1.75088188557,,2018_Dec_13_1434,59.9758323519,Arrows_VVA_Direction,1003,Whi,
ahead_image_10_WHI.jpg,ahead,10,image,,,,,,,,,,,,,,,,,,,,,,,,,,0,77,77,77,,,,,,,,,,,,,,,,,,,f,1.50011803098,0,2018_Dec_13_1434,59.9758323519,Arrows_VVA_Direction,1003,Whi,
right_image_8_WHI.jpg,right,8,image,,,,,,,,,,,,,,,,,,,,,,,,,,0,78,78,78,,,,,,,,,,,,,,,,,,,f,3.63304769389,,2018_Dec_13_1434,59.9758323519,Arrows_VVA_Direction,1003,Whi,
left_image_4_WHI.jpg,left,4,image,,,,,,,,,,,,,,,,,,,,,,,,,,0,79,79,79,,,,,,,,,,,,,,,,,,,a,2.05091932526,0,2018_Dec_13_1434,59.9758323519,Arrows_VVA_Direction,1003,Whi,
left_word_5_WHI.jpg,left,5,word,,,,,,,,,,,,,,,,,,,,,,,,,,0,80,80,80,,,,,,,,,,,,,,,,,,,f,2.55035549862,,2018_Dec_13_1434,59.9758323519,Arrows_VVA_Direction,1003,Whi,
ahead_word_21_WHI.jpg,ahead,21,word,,,,,,,,,,,,,,,,,,,,,,,,,,0,81,81,81,,,,,,,,,,,,,,,,,,,a,2.58401240196,0,2018_Dec_13_1434,59.9758323519,Arrows_VVA_Direction,1003,Whi,
right_word_16_WHI.jpg,right,16,word,,,,,,,,,,,,,,,,,,,,,,,,,,0,82,82,82,,,,,,,,,,,,,,,,,,,f,1.51796413732,,2018_Dec_13_1434,59.9758323519,Arrows_VVA_Direction,1003,Whi,
right_word_21_WHI.jpg,right,21,word,,,,,,,,,,,,,,,,,,,,,,,,,,0,83,83,83,,,,,,,,,,,,,,,,,,,f,1.5341952942,0,2018_Dec_13_1434,59.9758323519,Arrows_VVA_Direction,1003,Whi,
right_word_4_WHI.jpg,right,4,word,,,,,,,,,,,,,,,,,,,,,,,,,,0,84,84,84,,,,,,,,,,,,,,,,,,,f,2.6667639474,,2018_Dec_13_1434,59.9758323519,Arrows_VVA_Direction,1003,Whi,
ahead_word_14_WHI.jpg,ahead,14,word,,,,,,,,,,,,,,,,,,,,,,,,,,0,85,85,85,,,,,,,,,,,,,,,,,,,a,2.03411564002,0,2018_Dec_13_1434,59.9758323519,Arrows_VVA_Direction,1003,Whi,
ahead_word_2_WHI.jpg,ahead,2,word,,,,,,,,,,,,,,,,,,,,,,,,,,0,86,86,86,,,,,,,,,,,,,,,,,,,f,2.20083875629,,2018_Dec_13_1434,59.9758323519,Arrows_VVA_Direction,1003,Whi,
left_word_10_WHI.jpg,left,10,word,,,,,,,,,,,,,,,,,,,,,,,,,,0,87,87,87,,,,,,,,,,,,,,,,,,,a,1.56747467689,0,2018_Dec_13_1434,59.9758323519,Arrows_VVA_Direction,1003,Whi,
ahead_word_9_WHI.jpg,ahead,9,word,,,,,,,,,,,,,,,,,,,,,,,,,,0,88,88,88,,,,,,,,,,,,,,,,,,,f,1.98450737348,,2018_Dec_13_1434,59.9758323519,Arrows_VVA_Direction,1003,Whi,
ahead_word_3_WHI.jpg,ahead,3,word,,,,,,,,,,,,,,,,,,,,,,,,,,0,89,89,89,,,,,,,,,,,,,,,,,,,f,1.71725755789,0,2018_Dec_13_1434,59.9758323519,Arrows_VVA_Direction,1003,Whi,
right_word_12_WHI.jpg,right,12,word,,,,,,,,,,,,,,,,,,,,,,,,,,0,90,90,90,,,,,,,,,,,,,,,,,,,f,1.53430953213,,2018_Dec_13_1434,59.9758323519,Arrows_VVA_Direction,1003,Whi,
right_word_8_WHI.jpg,right,8,word,,,,,,,,,,,,,,,,,,,,,,,,,,0,91,91,91,,,,,,,,,,,,,,,,,,,f,1.81761290032,0,2018_Dec_13_1434,59.9758323519,Arrows_VVA_Direction,1003,Whi,
right_word_19_WHI.jpg,right,19,word,,,,,,,,,,,,,,,,,,,,,,,,,,0,92,92,92,,,,,,,,,,,,,,,,,,,f,1.93462332944,,2018_Dec_13_1434,59.9758323519,Arrows_VVA_Direction,1003,Whi,
ahead_word_17_WHI.jpg,ahead,17,word,,,,,,,,,,,,,,,,,,,,,,,,,,0,93,93,93,,,,,,,,,,,,,,,,,,,a,1.567399262,0,2018_Dec_13_1434,59.9758323519,Arrows_VVA_Direction,1003,Whi,
left_word_20_WHI.jpg,left,20,word,,,,,,,,,,,,,,,,,,,,,,,,,,0,94,94,94,,,,,,,,,,,,,,,,,,,f,1.83430145515,,2018_Dec_13_1434,59.9758323519,Arrows_VVA_Direction,1003,Whi,
ahead_word_8_WHI.jpg,ahead,8,word,,,,,,,,,,,,,,,,,,,,,,,,,,0,95,95,95,,,,,,,,,,,,,,,,,,,a,1.58384327627,0,2018_Dec_13_1434,59.9758323519,Arrows_VVA_Direction,1003,Whi,
right_word_13_WHI.jpg,right,13,word,,,,,,,,,,,,,,,,,,,,,,,,,,0,96,96,96,,,,,,,,,,,,,,,,,,,f,2.13404973009,,2018_Dec_13_1434,59.9758323519,Arrows_VVA_Direction,1003,Whi,
right_word_14_WHI.jpg,right,14,word,,,,,,,,,,,,,,,,,,,,,,,,,,0,97,97,97,,,,,,,,,,,,,,,,,,,f,1.88429125852,0,2018_Dec_13_1434,59.9758323519,Arrows_VVA_Direction,1003,Whi,
left_word_17_WHI.jpg,left,17,word,,,,,,,,,,,,,,,,,,,,,,,,,,0,98,98,98,,,,,,,,,,,,,,,,,,,f,2.21702171904,,2018_Dec_13_1434,59.9758323519,Arrows_VVA_Direction,1003,Whi,
left_word_7_WHI.jpg,left,7,word,,,,,,,,,,,,,,,,,,,,,,,,,,0,99,99,99,,,,,,,,,,,,,,,,,,,f,1.80087079646,0,2018_Dec_13_1434,59.9758323519,Arrows_VVA_Direction,1003,Whi,
right_schema_12_WHI.jpg,right,12,schema,,,,,,,,,,,,,,,,,,,,,,,,,,0,100,100,100,,,,,,,,,,,,,,,,,,,f,1.71767033165,,2018_Dec_13_1434,59.9758323519,Arrows_VVA_Direction,1003,Whi,
right_schema_8_WHI.jpg,right,8,schema,,,,,,,,,,,,,,,,,,,,,,,,,,0,101,101,101,,,,,,,,,,,,,,,,,,,f,1.40103447799,0,2018_Dec_13_1434,59.9758323519,Arrows_VVA_Direction,1003,Whi,
right_schema_18_WHI.jpg,right,18,schema,,,,,,,,,,,,,,,,,,,,,,,,,,0,102,102,102,,,,,,,,,,,,,,,,,,,f,1.48407072577,,2018_Dec_13_1434,59.9758323519,Arrows_VVA_Direction,1003,Whi,
left_schema_16_WHI.jpg,left,16,schema,,,,,,,,,,,,,,,,,,,,,,,,,,0,103,103,103,,,,,,,,,,,,,,,,,,,a,1.73396351615,0,2018_Dec_13_1434,59.9758323519,Arrows_VVA_Direction,1003,Whi,
ahead_schema_18_WHI.jpg,ahead,18,schema,,,,,,,,,,,,,,,,,,,,,,,,,,0,104,104,104,,,,,,,,,,,,,,,,,,,f,1.88386331253,,2018_Dec_13_1434,59.9758323519,Arrows_VVA_Direction,1003,Whi,
ahead_schema_3_WHI.jpg,ahead,3,schema,,,,,,,,,,,,,,,,,,,,,,,,,,0,105,105,105,,,,,,,,,,,,,,,,,,,f,1.26775406895,0,2018_Dec_13_1434,59.9758323519,Arrows_VVA_Direction,1003,Whi,
right_schema_2_WHI.jpg,right,2,schema,,,,,,,,,,,,,,,,,,,,,,,,,,0,106,106,106,,,,,,,,,,,,,,,,,,,f,1.917278799,,2018_Dec_13_1434,59.9758323519,Arrows_VVA_Direction,1003,Whi,
left_schema_21_WHI.jpg,left,21,schema,,,,,,,,,,,,,,,,,,,,,,,,,,0,107,107,107,,,,,,,,,,,,,,,,,,,a,1.38332313671,0,2018_Dec_13_1434,59.9758323519,Arrows_VVA_Direction,1003,Whi,
ahead_schema_19_WHI.jpg,ahead,19,schema,,,,,,,,,,,,,,,,,,,,,,,,,,0,108,108,108,,,,,,,,,,,,,,,,,,,f,1.80033173623,,2018_Dec_13_1434,59.9758323519,Arrows_VVA_Direction,1003,Whi,
ahead_schema_20_WHI.jpg,ahead,20,schema,,,,,,,,,,,,,,,,,,,,,,,,,,0,109,109,109,,,,,,,,,,,,,,,,,,,f,1.51693644221,0,2018_Dec_13_1434,59.9758323519,Arrows_VVA_Direction,1003,Whi,
left_schema_15_WHI.jpg,left,15,schema,,,,,,,,,,,,,,,,,,,,,,,,,,0,110,110,110,,,,,,,,,,,,,,,,,,,f,1.28490805409,,2018_Dec_13_1434,59.9758323519,Arrows_VVA_Direction,1003,Whi,
left_schema_4_WHI.jpg,left,4,schema,,,,,,,,,,,,,,,,,,,,,,,,,,0,111,111,111,,,,,,,,,,,,,,,,,,,f,1.28415524399,0,2018_Dec_13_1434,59.9758323519,Arrows_VVA_Direction,1003,Whi,
left_schema_5_WHI.jpg,left,5,schema,,,,,,,,,,,,,,,,,,,,,,,,,,0,112,112,112,,,,,,,,,,,,,,,,,,,f,1.51755805719,,2018_Dec_13_1434,59.9758323519,Arrows_VVA_Direction,1003,Whi,
right_schema_15_WHI.jpg,right,15,schema,,,,,,,,,,,,,,,,,,,,,,,,,,0,113,113,113,,,,,,,,,,,,,,,,,,,a,1.20120913707,0,2018_Dec_13_1434,59.9758323519,Arrows_VVA_Direction,1003,Whi,
right_schema_3_WHI.jpg,right,3,schema,,,,,,,,,,,,,,,,,,,,,,,,,,0,114,114,114,,,,,,,,,,,,,,,,,,,f,1.95021680663,,2018_Dec_13_1434,59.9758323519,Arrows_VVA_Direction,1003,Whi,
right_schema_6_WHI.jpg,right,6,schema,,,,,,,,,,,,,,,,,,,,,,,,,,0,115,115,115,,,,,,,,,,,,,,,,,,,f,1.38404158618,0,2018_Dec_13_1434,59.9758323519,Arrows_VVA_Direction,1003,Whi,
left_schema_8_WHI.jpg,left,8,schema,,,,,,,,,,,,,,,,,,,,,,,,,,0,116,116,116,,,,,,,,,,,,,,,,,,,f,1.38409558145,,2018_Dec_13_1434,59.9758323519,Arrows_VVA_Direction,1003,Whi,
right_schema_21_WHI.jpg,right,21,schema,,,,,,,,,,,,,,,,,,,,,,,,,,0,117,117,117,,,,,,,,,,,,,,,,,,,a,1.31697410503,0,2018_Dec_13_1434,59.9758323519,Arrows_VVA_Direction,1003,Whi,
right_schema_17_WHI.jpg,right,17,schema,,,,,,,,,,,,,,,,,,,,,,,,,,0,118,118,118,,,,,,,,,,,,,,,,,,,f,1.78441473366,,2018_Dec_13_1434,59.9758323519,Arrows_VVA_Direction,1003,Whi,
right_schema_14_WHI.jpg,right,14,schema,,,,,,,,,,,,,,,,,,,,,,,,,,0,119,119,119,,,,,,,,,,,,,,,,,,,f,1.03462524828,0,2018_Dec_13_1434,59.9758323519,Arrows_VVA_Direction,1003,Whi,
right_image_13_WHI.jpg,right,13,image,,,,,,,,,,,,,,,,,,,,,,,,,,0,120,120,120,,,,,,,,,,,,,,,,,,,f,3.45007601731,,2018_Dec_13_1434,59.9758323519,Arrows_VVA_Direction,1003,Whi,
right_image_12_WHI.jpg,right,12,image,,,,,,,,,,,,,,,,,,,,,,,,,,0,121,121,121,,,,,,,,,,,,,,,,,,,f,1.61746180281,0,2018_Dec_13_1434,59.9758323519,Arrows_VVA_Direction,1003,Whi,
left_image_11_WHI.jpg,left,11,image,,,,,,,,,,,,,,,,,,,,,,,,,,0,122,122,122,,,,,,,,,,,,,,,,,,,f,2.78338525358,,2018_Dec_13_1434,59.9758323519,Arrows_VVA_Direction,1003,Whi,
right_image_15_WHI.jpg,right,15,image,,,,,,,,,,,,,,,,,,,,,,,,,,0,123,123,123,,,,,,,,,,,,,,,,,,,a,1.73410318987,0,2018_Dec_13_1434,59.9758323519,Arrows_VVA_Direction,1003,Whi,
right_image_6_WHI.jpg,right,6,image,,,,,,,,,,,,,,,,,,,,,,,,,,0,124,124,124,,,,,,,,,,,,,,,,,,,f,2.6839121314,,2018_Dec_13_1434,59.9758323519,Arrows_VVA_Direction,1003,Whi,
left_image_17_WHI.jpg,left,17,image,,,,,,,,,,,,,,,,,,,,,,,,,,0,125,125,125,,,,,,,,,,,,,,,,,,,a,2.76673998421,0,2018_Dec_13_1434,59.9758323519,Arrows_VVA_Direction,1003,Whi,
left_image_1_WHI.jpg,left,1,image,,,,,,,,,,,,,,,,,,,,,,,,,,0,126,126,126,,,,,,,,,,,,,,,,,,,f,3.98287055816,,2018_Dec_13_1434,59.9758323519,Arrows_VVA_Direction,1003,Whi,
left_image_6_WHI.jpg,left,6,image,,,,,,,,,,,,,,,,,,,,,,,,,,0,127,127,127,,,,,,,,,,,,,,,,,,,f,2.09963600048,0,2018_Dec_13_1434,59.9758323519,Arrows_VVA_Direction,1003,Whi,
ahead_image_12_WHI.jpg,ahead,12,image,,,,,,,,,,,,,,,,,,,,,,,,,,0,128,128,128,,,,,,,,,,,,,,,,,,,f,1.55067500782,,2018_Dec_13_1434,59.9758323519,Arrows_VVA_Direction,1003,Whi,
ahead_image_13_WHI.jpg,ahead,13,image,,,,,,,,,,,,,,,,,,,,,,,,,,0,129,129,129,,,,,,,,,,,,,,,,,,,f,1.58408156945,0,2018_Dec_13_1434,59.9758323519,Arrows_VVA_Direction,1003,Whi,
left_image_16_WHI.jpg,left,16,image,,,,,,,,,,,,,,,,,,,,,,,,,,0,130,130,130,,,,,,,,,,,,,,,,,,,f,3.35055113107,,2018_Dec_13_1434,59.9758323519,Arrows_VVA_Direction,1003,Whi,
right_image_1_WHI.jpg,right,1,image,,,,,,,,,,,,,,,,,,,,,,,,,,0,131,131,131,,,,,,,,,,,,,,,,,,,a,4.11652447168,0,2018_Dec_13_1434,59.9758323519,Arrows_VVA_Direction,1003,Whi,
left_image_12_WHI.jpg,left,12,image,,,,,,,,,,,,,,,,,,,,,,,,,,0,132,132,132,,,,,,,,,,,,,,,,,,,f,2.58397536388,,2018_Dec_13_1434,59.9758323519,Arrows_VVA_Direction,1003,Whi,
left_image_16_WHI.jpg,left,16,image,,,,,,,,,,,,,,,,,,,,,,,,,,0,133,133,133,,,,,,,,,,,,,,,,,,,f,1.96713339108,0,2018_Dec_13_1434,59.9758323519,Arrows_VVA_Direction,1003,Whi,
right_image_9_WHI.jpg,right,9,image,,,,,,,,,,,,,,,,,,,,,,,,,,0,134,134,134,,,,,,,,,,,,,,,,,,,f,2.33360509465,,2018_Dec_13_1434,59.9758323519,Arrows_VVA_Direction,1003,Whi,
ahead_image_1_WHI.jpg,ahead,1,image,,,,,,,,,,,,,,,,,,,,,,,,,,0,135,135,135,,,,,,,,,,,,,,,,,,,a,1.83301092356,0,2018_Dec_13_1434,59.9758323519,Arrows_VVA_Direction,1003,Whi,
right_image_4_WHI.jpg,right,4,image,,,,,,,,,,,,,,,,,,,,,,,,,,0,136,136,136,,,,,,,,,,,,,,,,,,,f,3.54966248493,,2018_Dec_13_1434,59.9758323519,Arrows_VVA_Direction,1003,Whi,
ahead_image_11_WHI.jpg,ahead,11,image,,,,,,,,,,,,,,,,,,,,,,,,,,0,137,137,137,,,,,,,,,,,,,,,,,,,a,1.80032995127,0,2018_Dec_13_1434,59.9758323519,Arrows_VVA_Direction,1003,Whi,
ahead_image_3_WHI.jpg,ahead,3,image,,,,,,,,,,,,,,,,,,,,,,,,,,0,138,138,138,,,,,,,,,,,,,,,,,,,f,1.80071059561,,2018_Dec_13_1434,59.9758323519,Arrows_VVA_Direction,1003,Whi,
ahead_image_19_WHI.jpg,ahead,19,image,,,,,,,,,,,,,,,,,,,,,,,,,,0,139,139,139,,,,,,,,,,,,,,,,,,,f,1.91747112926,0,2018_Dec_13_1434,59.9758323519,Arrows_VVA_Direction,1003,Whi,
ahead_schema_12_WHI.jpg,ahead,12,schema,,,,,,,,,,,,,,,,,,,,,,,,,,0,140,140,140,,,,,,,,,,,,,,,,,,,f,2.26702446343,,2018_Dec_13_1434,59.9758323519,Arrows_VVA_Direction,1003,Whi,
right_schema_10_WHI.jpg,right,10,schema,,,,,,,,,,,,,,,,,,,,,,,,,,0,141,141,141,,,,,,,,,,,,,,,,,,,a,1.06747534625,0,2018_Dec_13_1434,59.9758323519,Arrows_VVA_Direction,1003,Whi,
ahead_schema_21_WHI.jpg,ahead,21,schema,,,,,,,,,,,,,,,,,,,,,,,,,,0,142,142,142,,,,,,,,,,,,,,,,,,,f,1.56755767788,,2018_Dec_13_1434,59.9758323519,Arrows_VVA_Direction,1003,Whi,
ahead_schema_5_WHI.jpg,ahead,5,schema,,,,,,,,,,,,,,,,,,,,,,,,,,0,143,143,143,,,,,,,,,,,,,,,,,,,f,1.16753884647,0,2018_Dec_13_1434,59.9758323519,Arrows_VVA_Direction,1003,Whi,
right_schema_5_WHI.jpg,right,5,schema,,,,,,,,,,,,,,,,,,,,,,,,,,0,144,144,144,,,,,,,,,,,,,,,,,,,f,1.46793194097,,2018_Dec_13_1434,59.9758323519,Arrows_VVA_Direction,1003,Whi,
ahead_schema_2_WHI.jpg,ahead,2,schema,,,,,,,,,,,,,,,,,,,,,,,,,,0,145,145,145,,,,,,,,,,,,,,,,,,,a,1.15113454774,0,2018_Dec_13_1434,59.9758323519,Arrows_VVA_Direction,1003,Whi,
ahead_schema_13_WHI.jpg,ahead,13,schema,,,,,,,,,,,,,,,,,,,,,,,,,,0,146,146,146,,,,,,,,,,,,,,,,,,,f,2.35028070847,,2018_Dec_13_1434,59.9758323519,Arrows_VVA_Direction,1003,Whi,
ahead_schema_11_WHI.jpg,ahead,11,schema,,,,,,,,,,,,,,,,,,,,,,,,,,0,147,147,147,,,,,,,,,,,,,,,,,,,f,3.51642371026,0,2018_Dec_13_1434,59.9758323519,Arrows_VVA_Direction,1003,Whi,
right_schema_13_WHI.jpg,right,13,schema,,,,,,,,,,,,,,,,,,,,,,,,,,0,148,148,148,,,,,,,,,,,,,,,,,,,f,1.81733578409,,2018_Dec_13_1434,59.9758323519,Arrows_VVA_Direction,1003,Whi,
right_schema_1_WHI.jpg,right,1,schema,,,,,,,,,,,,,,,,,,,,,,,,,,0,149,149,149,,,,,,,,,,,,,,,,,,,f,1.3180120637,0,2018_Dec_13_1434,59.9758323519,Arrows_VVA_Direction,1003,Whi,
right_schema_19_WHI.jpg,right,19,schema,,,,,,,,,,,,,,,,,,,,,,,,,,0,150,150,150,,,,,,,,,,,,,,,,,,,f,1.85119840495,,2018_Dec_13_1434,59.9758323519,Arrows_VVA_Direction,1003,Whi,
left_schema_11_WHI.jpg,left,11,schema,,,,,,,,,,,,,,,,,,,,,,,,,,0,151,151,151,,,,,,,,,,,,,,,,,,,a,1.25090486703,0,2018_Dec_13_1434,59.9758323519,Arrows_VVA_Direction,1003,Whi,
left_schema_20_WHI.jpg,left,20,schema,,,,,,,,,,,,,,,,,,,,,,,,,,0,152,152,152,,,,,,,,,,,,,,,,,,,f,1.4679109676,,2018_Dec_13_1434,59.9758323519,Arrows_VVA_Direction,1003,Whi,
ahead_schema_8_WHI.jpg,ahead,8,schema,,,,,,,,,,,,,,,,,,,,,,,,,,0,153,153,153,,,,,,,,,,,,,,,,,,,a,1.38415671659,0,2018_Dec_13_1434,59.9758323519,Arrows_VVA_Direction,1003,Whi,
ahead_schema_14_WHI.jpg,ahead,14,schema,,,,,,,,,,,,,,,,,,,,,,,,,,0,154,154,154,,,,,,,,,,,,,,,,,,,f,1.48425502368,,2018_Dec_13_1434,59.9758323519,Arrows_VVA_Direction,1003,Whi,
ahead_schema_21_WHI.jpg,ahead,21,schema,,,,,,,,,,,,,,,,,,,,,,,,,,0,155,155,155,,,,,,,,,,,,,,,,,,,f,1.15074185486,0,2018_Dec_13_1434,59.9758323519,Arrows_VVA_Direction,1003,Whi,
left_schema_13_WHI.jpg,left,13,schema,,,,,,,,,,,,,,,,,,,,,,,,,,0,156,156,156,,,,,,,,,,,,,,,,,,,f,1.35094070025,,2018_Dec_13_1434,59.9758323519,Arrows_VVA_Direction,1003,Whi,
right_schema_9_WHI.jpg,right,9,schema,,,,,,,,,,,,,,,,,,,,,,,,,,0,157,157,157,,,,,,,,,,,,,,,,,,,a,1.16851165383,0,2018_Dec_13_1434,59.9758323519,Arrows_VVA_Direction,1003,Whi,
ahead_schema_9_WHI.jpg,ahead,9,schema,,,,,,,,,,,,,,,,,,,,,,,,,,0,158,158,158,,,,,,,,,,,,,,,,,,,f,1.20088293424,,2018_Dec_13_1434,59.9758323519,Arrows_VVA_Direction,1003,Whi,
left_schema_18_WHI.jpg,left,18,schema,,,,,,,,,,,,,,,,,,,,,,,,,,0,159,159,159,,,,,,,,,,,,,,,,,,,a,1.41740798603,0,2018_Dec_13_1434,59.9758323519,Arrows_VVA_Direction,1003,Whi,
ahead_word_5_WHI.jpg,ahead,5,word,,,,,,,,,,,,,,,,,,,,,,,,,,0,160,160,160,,,,,,,,,,,,,,,,,,,f,2.61698343148,,2018_Dec_13_1434,59.9758323519,Arrows_VVA_Direction,1003,Whi,
left_word_1_WHI.jpg,left,1,word,,,,,,,,,,,,,,,,,,,,,,,,,,0,161,161,161,,,,,,,,,,,,,,,,,,,a,1.93408962412,0,2018_Dec_13_1434,59.9758323519,Arrows_VVA_Direction,1003,Whi,
right_word_18_WHI.jpg,right,18,word,,,,,,,,,,,,,,,,,,,,,,,,,,0,162,162,162,,,,,,,,,,,,,,,,,,,f,1.70057658917,,2018_Dec_13_1434,59.9758323519,Arrows_VVA_Direction,1003,Whi,
right_word_17_WHI.jpg,right,17,word,,,,,,,,,,,,,,,,,,,,,,,,,,0,163,163,163,,,,,,,,,,,,,,,,,,,f,1.88400477122,0,2018_Dec_13_1434,59.9758323519,Arrows_VVA_Direction,1003,Whi,
left_word_16_WHI.jpg,left,16,word,,,,,,,,,,,,,,,,,,,,,,,,,,0,164,164,164,,,,,,,,,,,,,,,,,,,f,2.66680946408,,2018_Dec_13_1434,59.9758323519,Arrows_VVA_Direction,1003,Whi,
left_word_3_WHI.jpg,left,3,word,,,,,,,,,,,,,,,,,,,,,,,,,,0,165,165,165,,,,,,,,,,,,,,,,,,,f,1.35096256611,0,2018_Dec_13_1434,59.9758323519,Arrows_VVA_Direction,1003,Whi,
right_word_5_WHI.jpg,right,5,word,,,,,,,,,,,,,,,,,,,,,,,,,,0,166,166,166,,,,,,,,,,,,,,,,,,,f,1.81707562506,,2018_Dec_13_1434,59.9758323519,Arrows_VVA_Direction,1003,Whi,
ahead_word_19_WHI.jpg,ahead,19,word,,,,,,,,,,,,,,,,,,,,,,,,,,0,167,167,167,,,,,,,,,,,,,,,,,,,a,1.83330098079,0,2018_Dec_13_1434,59.9758323519,Arrows_VVA_Direction,1003,Whi,
right_word_15_WHI.jpg,right,15,word,,,,,,,,,,,,,,,,,,,,,,,,,,0,168,168,168,,,,,,,,,,,,,,,,,,,f,1.95083574416,,2018_Dec_13_1434,59.9758323519,Arrows_VVA_Direction,1003,Whi,
ahead_word_10_WHI.jpg,ahead,10,word,,,,,,,,,,,,,,,,,,,,,,,,,,0,169,169,169,,,,,,,,,,,,,,,,,,,a,1.56745414976,0,2018_Dec_13_1434,59.9758323519,Arrows_VVA_Direction,1003,Whi,
left_word_6_WHI.jpg,left,6,word,,,,,,,,,,,,,,,,,,,,,,,,,,0,170,170,170,,,,,,,,,,,,,,,,,,,f,1.61731766667,,2018_Dec_13_1434,59.9758323519,Arrows_VVA_Direction,1003,Whi,
left_word_21_WHI.jpg,left,21,word,,,,,,,,,,,,,,,,,,,,,,,,,,0,171,171,171,,,,,,,,,,,,,,,,,,,f,1.76736650785,0,2018_Dec_13_1434,59.9758323519,Arrows_VVA_Direction,1003,Whi,
left_word_8_WHI.jpg,left,8,word,,,,,,,,,,,,,,,,,,,,,,,,,,0,172,172,172,,,,,,,,,,,,,,,,,,,f,1.78439465277,,2018_Dec_13_1434,59.9758323519,Arrows_VVA_Direction,1003,Whi,
ahead_word_18_WHI.jpg,ahead,18,word,,,,,,,,,,,,,,,,,,,,,,,,,,0,173,173,173,,,,,,,,,,,,,,,,,,,a,1.700640848,0,2018_Dec_13_1434,59.9758323519,Arrows_VVA_Direction,1003,Whi,
ahead_word_1_WHI.jpg,ahead,1,word,,,,,,,,,,,,,,,,,,,,,,,,,,0,174,174,174,,,,,,,,,,,,,,,,,,,f,1.81724564323,,2018_Dec_13_1434,59.9758323519,Arrows_VVA_Direction,1003,Whi,
ahead_word_20_WHI.jpg,ahead,20,word,,,,,,,,,,,,,,,,,,,,,,,,,,0,175,175,175,,,,,,,,,,,,,,,,,,,f,1.35050606063,0,2018_Dec_13_1434,59.9758323519,Arrows_VVA_Direction,1003,Whi,
left_word_14_WHI.jpg,left,14,word,,,,,,,,,,,,,,,,,,,,,,,,,,0,176,176,176,,,,,,,,,,,,,,,,,,,f,1.83379363186,,2018_Dec_13_1434,59.9758323519,Arrows_VVA_Direction,1003,Whi,
ahead_word_13_WHI.jpg,ahead,13,word,,,,,,,,,,,,,,,,,,,,,,,,,,0,177,177,177,,,,,,,,,,,,,,,,,,,a,2.05050744398,0,2018_Dec_13_1434,59.9758323519,Arrows_VVA_Direction,1003,Whi,
right_word_6_WHI.jpg,right,6,word,,,,,,,,,,,,,,,,,,,,,,,,,,0,178,178,178,,,,,,,,,,,,,,,,,,,f,1.60066659616,,2018_Dec_13_1434,59.9758323519,Arrows_VVA_Direction,1003,Whi,
right_word_20_WHI.jpg,right,20,word,,,,,,,,,,,,,,,,,,,,,,,,,,0,179,179,179,,,,,,,,,,,,,,,,,,,f,1.25100928763,0,2018_Dec_13_1434,59.9758323519,Arrows_VVA_Direction,1003,Whi,
left_schema_19_WHI.jpg,left,19,schema,,,,,,,,,,,,,,,,,,,,,,,,,,0,180,180,180,,,,,,,,,,,,,,,,,,,f,1.51744605047,,2018_Dec_13_1434,59.9758323519,Arrows_VVA_Direction,1003,Whi,
left_schema_17_WHI.jpg,left,17,schema,,,,,,,,,,,,,,,,,,,,,,,,,,0,181,181,181,,,,,,,,,,,,,,,,,,,f,0.984314150733,0,2018_Dec_13_1434,59.9758323519,Arrows_VVA_Direction,1003,Whi,
right_schema_1_WHI.jpg,right,1,schema,,,,,,,,,,,,,,,,,,,,,,,,,,0,182,182,182,,,,,,,,,,,,,,,,,,,f,1.33404553542,,2018_Dec_13_1434,59.9758323519,Arrows_VVA_Direction,1003,Whi,
right_schema_12_WHI.jpg,right,12,schema,,,,,,,,,,,,,,,,,,,,,,,,,,0,183,183,183,,,,,,,,,,,,,,,,,,,f,1.30054169305,0,2018_Dec_13_1434,59.9758323519,Arrows_VVA_Direction,1003,Whi,
right_schema_21_WHI.jpg,right,21,schema,,,,,,,,,,,,,,,,,,,,,,,,,,0,184,184,184,,,,,,,,,,,,,,,,,,,f,1.45102205015,,2018_Dec_13_1434,59.9758323519,Arrows_VVA_Direction,1003,Whi,
left_schema_9_WHI.jpg,left,9,schema,,,,,,,,,,,,,,,,,,,,,,,,,,0,185,185,185,,,,,,,,,,,,,,,,,,,a,1.53416584223,0,2018_Dec_13_1434,59.9758323519,Arrows_VVA_Direction,1003,Whi,
right_schema_17_WHI.jpg,right,17,schema,,,,,,,,,,,,,,,,,,,,,,,,,,0,186,186,186,,,,,,,,,,,,,,,,,,,f,1.25087095264,,2018_Dec_13_1434,59.9758323519,Arrows_VVA_Direction,1003,Whi,
right_schema_15_WHI.jpg,right,15,schema,,,,,,,,,,,,,,,,,,,,,,,,,,0,187,187,187,,,,,,,,,,,,,,,,,,,f,1.46760484565,0,2018_Dec_13_1434,59.9758323519,Arrows_VVA_Direction,1003,Whi,
right_schema_11_WHI.jpg,right,11,schema,,,,,,,,,,,,,,,,,,,,,,,,,,0,188,188,188,,,,,,,,,,,,,,,,,,,f,1.06706658866,,2018_Dec_13_1434,59.9758323519,Arrows_VVA_Direction,1003,Whi,
left_schema_12_WHI.jpg,left,12,schema,,,,,,,,,,,,,,,,,,,,,,,,,,0,189,189,189,,,,,,,,,,,,,,,,,,,a,1.18541752847,0,2018_Dec_13_1434,59.9758323519,Arrows_VVA_Direction,1003,Whi,
left_schema_6_WHI.jpg,left,6,schema,,,,,,,,,,,,,,,,,,,,,,,,,,0,190,190,190,,,,,,,,,,,,,,,,,,,f,2.01651095055,,2018_Dec_13_1434,59.9758323519,Arrows_VVA_Direction,1003,Whi,
ahead_schema_1_WHI.jpg,ahead,1,schema,,,,,,,,,,,,,,,,,,,,,,,,,,0,191,191,191,,,,,,,,,,,,,,,,,,,a,1.30108833939,0,2018_Dec_13_1434,59.9758323519,Arrows_VVA_Direction,1003,Whi,
ahead_schema_7_WHI.jpg,ahead,7,schema,,,,,,,,,,,,,,,,,,,,,,,,,,0,192,192,192,,,,,,,,,,,,,,,,,,,f,1.45078821939,,2018_Dec_13_1434,59.9758323519,Arrows_VVA_Direction,1003,Whi,
ahead_schema_17_WHI.jpg,ahead,17,schema,,,,,,,,,,,,,,,,,,,,,,,,,,0,193,193,193,,,,,,,,,,,,,,,,,,,f,1.03422139935,0,2018_Dec_13_1434,59.9758323519,Arrows_VVA_Direction,1003,Whi,
left_schema_2_WHI.jpg,left,2,schema,,,,,,,,,,,,,,,,,,,,,,,,,,0,194,194,194,,,,,,,,,,,,,,,,,,,f,1.48346963792,,2018_Dec_13_1434,59.9758323519,Arrows_VVA_Direction,1003,Whi,
left_schema_1_WHI.jpg,left,1,schema,,,,,,,,,,,,,,,,,,,,,,,,,,0,195,195,195,,,,,,,,,,,,,,,,,,,f,1.10094482799,0,2018_Dec_13_1434,59.9758323519,Arrows_VVA_Direction,1003,Whi,
ahead_schema_5_WHI.jpg,ahead,5,schema,,,,,,,,,,,,,,,,,,,,,,,,,,0,196,196,196,,,,,,,,,,,,,,,,,,,f,1.45106042696,,2018_Dec_13_1434,59.9758323519,Arrows_VVA_Direction,1003,Whi,
right_schema_19_WHI.jpg,right,19,schema,,,,,,,,,,,,,,,,,,,,,,,,,,0,197,197,197,,,,,,,,,,,,,,,,,,,a,1.2175366822,0,2018_Dec_13_1434,59.9758323519,Arrows_VVA_Direction,1003,Whi,
left_schema_9_WHI.jpg,left,9,schema,,,,,,,,,,,,,,,,,,,,,,,,,,0,198,198,198,,,,,,,,,,,,,,,,,,,f,1.18469461658,,2018_Dec_13_1434,59.9758323519,Arrows_VVA_Direction,1003,Whi,
left_schema_3_WHI.jpg,left,3,schema,,,,,,,,,,,,,,,,,,,,,,,,,,0,199,199,199,,,,,,,,,,,,,,,,,,,f,1.11764498511,0,2018_Dec_13_1434,59.9758323519,Arrows_VVA_Direction,1003,Whi,
right_image_3_WHI.jpg,right,3,image,,,,,,,,,,,,,,,,,,,,,,,,,,0,200,200,200,,,,,,,,,,,,,,,,,,,f,3.59964425595,,2018_Dec_13_1434,59.9758323519,Arrows_VVA_Direction,1003,Whi,
ahead_image_15_WHI.jpg,ahead,15,image,,,,,,,,,,,,,,,,,,,,,,,,,,0,201,201,201,,,,,,,,,,,,,,,,,,,a,2.1168707554,0,2018_Dec_13_1434,59.9758323519,Arrows_VVA_Direction,1003,Whi,
ahead_image_9_WHI.jpg,ahead,9,image,,,,,,,,,,,,,,,,,,,,,,,,,,0,202,202,202,,,,,,,,,,,,,,,,,,,f,1.88384010796,,2018_Dec_13_1434,59.9758323519,Arrows_VVA_Direction,1003,Whi,
left_image_4_WHI.jpg,left,4,image,,,,,,,,,,,,,,,,,,,,,,,,,,0,203,203,203,,,,,,,,,,,,,,,,,,,a,1.50079051754,0,2018_Dec_13_1434,59.9758323519,Arrows_VVA_Direction,1003,Whi,
left_image_21_WHI.jpg,left,21,image,,,,,,,,,,,,,,,,,,,,,,,,,,0,204,204,204,,,,,,,,,,,,,,,,,,,f,3.10061103904,,2018_Dec_13_1434,59.9758323519,Arrows_VVA_Direction,1003,Whi,
left_image_12_WHI.jpg,left,12,image,,,,,,,,,,,,,,,,,,,,,,,,,,0,205,205,205,,,,,,,,,,,,,,,,,,,f,1.58426229742,0,2018_Dec_13_1434,59.9758323519,Arrows_VVA_Direction,1003,Whi,
ahead_image_15_WHI.jpg,ahead,15,image,,,,,,,,,,,,,,,,,,,,,,,,,,0,206,206,206,,,,,,,,,,,,,,,,,,,f,1.56903830853,,2018_Dec_13_1434,59.9758323519,Arrows_VVA_Direction,1003,Whi,
ahead_image_17_WHI.jpg,ahead,17,image,,,,,,,,,,,,,,,,,,,,,,,,,,0,207,207,207,,,,,,,,,,,,,,,,,,,f,1.73304515031,0,2018_Dec_13_1434,59.9758323519,Arrows_VVA_Direction,1003,Whi,
right_image_10_WHI.jpg,right,10,image,,,,,,,,,,,,,,,,,,,,,,,,,,0,208,208,208,,,,,,,,,,,,,,,,,,,f,10.9628534849,,2018_Dec_13_1434,59.9758323519,Arrows_VVA_Direction,1003,Whi,
left_image_10_WHI.jpg,left,10,image,,,,,,,,,,,,,,,,,,,,,,,,,,0,209,209,209,,,,,,,,,,,,,,,,,,,a,2.39936151708,0,2018_Dec_13_1434,59.9758323519,Arrows_VVA_Direction,1003,Whi,
left_image_8_WHI.jpg,left,8,image,,,,,,,,,,,,,,,,,,,,,,,,,,0,210,210,210,,,,,,,,,,,,,,,,,,,f,2.09998094547,,2018_Dec_13_1434,59.9758323519,Arrows_VVA_Direction,1003,Whi,
right_image_2_WHI.jpg,right,2,image,,,,,,,,,,,,,,,,,,,,,,,,,,0,211,211,211,,,,,,,,,,,,,,,,,,,a,2.94995977129,0,2018_Dec_13_1434,59.9758323519,Arrows_VVA_Direction,1003,Whi,
right_image_4_WHI.jpg,right,4,image,,,,,,,,,,,,,,,,,,,,,,,,,,0,212,212,212,,,,,,,,,,,,,,,,,,,f,2.68400762717,,2018_Dec_13_1434,59.9758323519,Arrows_VVA_Direction,1003,Whi,
right_image_21_WHI.jpg,right,21,image,,,,,,,,,,,,,,,,,,,,,,,,,,0,213,213,213,,,,,,,,,,,,,,,,,,,f,2.31759839746,0,2018_Dec_13_1434,59.9758323519,Arrows_VVA_Direction,1003,Whi,
left_image_20_WHI.jpg,left,20,image,,,,,,,,,,,,,,,,,,,,,,,,,,0,214,214,214,,,,,,,,,,,,,,,,,,,f,2.13368961287,,2018_Dec_13_1434,59.9758323519,Arrows_VVA_Direction,1003,Whi,
left_image_14_WHI.jpg,left,14,image,,,,,,,,,,,,,,,,,,,,,,,,,,0,215,215,215,,,,,,,,,,,,,,,,,,,f,2.00054798506,0,2018_Dec_13_1434,59.9758323519,Arrows_VVA_Direction,1003,Whi,
ahead_image_3_WHI.jpg,ahead,3,image,,,,,,,,,,,,,,,,,,,,,,,,,,0,216,216,216,,,,,,,,,,,,,,,,,,,f,2.00074611647,,2018_Dec_13_1434,59.9758323519,Arrows_VVA_Direction,1003,Whi,
left_image_18_WHI.jpg,left,18,image,,,,,,,,,,,,,,,,,,,,,,,,,,0,217,217,217,,,,,,,,,,,,,,,,,,,a,1.26749524864,0,2018_Dec_13_1434,59.9758323519,Arrows_VVA_Direction,1003,Whi,
right_image_7_WHI.jpg,right,7,image,,,,,,,,,,,,,,,,,,,,,,,,,,0,218,218,218,,,,,,,,,,,,,,,,,,,f,2.26784554854,,2018_Dec_13_1434,59.9758323519,Arrows_VVA_Direction,1003,Whi,
right_image_9_WHI.jpg,right,9,image,,,,,,,,,,,,,,,,,,,,,,,,,,0,219,219,219,,,,,,,,,,,,,,,,,,,f,1.28462826041,0,2018_Dec_13_1434,59.9758323519,Arrows_VVA_Direction,1003,Whi,
ahead_word_6_WHI.jpg,ahead,6,word,,,,,,,,,,,,,,,,,,,,,,,,,,0,220,220,220,,,,,,,,,,,,,,,,,,,f,1.70092465786,,2018_Dec_13_1434,59.9758323519,Arrows_VVA_Direction,1003,Whi,
right_word_11_WHI.jpg,right,11,word,,,,,,,,,,,,,,,,,,,,,,,,,,0,221,221,221,,,,,,,,,,,,,,,,,,,a,1.86740055611,0,2018_Dec_13_1434,59.9758323519,Arrows_VVA_Direction,1003,Whi,
right_word_9_WHI.jpg,right,9,word,,,,,,,,,,,,,,,,,,,,,,,,,,0,222,222,222,,,,,,,,,,,,,,,,,,,f,1.43374713345,,2018_Dec_13_1434,59.9758323519,Arrows_VVA_Direction,1003,Whi,
right_word_1_WHI.jpg,right,1,word,,,,,,,,,,,,,,,,,,,,,,,,,,0,223,223,223,,,,,,,,,,,,,,,,,,,f,1.61717888544,0,2018_Dec_13_1434,59.9758323519,Arrows_VVA_Direction,1003,Whi,
ahead_word_18_WHI.jpg,ahead,18,word,,,,,,,,,,,,,,,,,,,,,,,,,,0,224,224,224,,,,,,,,,,,,,,,,,,,f,1.23415740826,,2018_Dec_13_1434,59.9758323519,Arrows_VVA_Direction,1003,Whi,
right_word_6_WHI.jpg,right,6,word,,,,,,,,,,,,,,,,,,,,,,,,,,0,225,225,225,,,,,,,,,,,,,,,,,,,a,1.1675678522,0,2018_Dec_13_1434,59.9758323519,Arrows_VVA_Direction,1003,Whi,
right_word_19_WHI.jpg,right,19,word,,,,,,,,,,,,,,,,,,,,,,,,,,0,226,226,226,,,,,,,,,,,,,,,,,,,f,1.31751852015,,2018_Dec_13_1434,59.9758323519,Arrows_VVA_Direction,1003,Whi,
ahead_word_7_WHI.jpg,ahead,7,word,,,,,,,,,,,,,,,,,,,,,,,,,,0,227,227,227,,,,,,,,,,,,,,,,,,,a,4.59892000534,0,2018_Dec_13_1434,59.9758323519,Arrows_VVA_Direction,1003,Whi,
left_word_18_WHI.jpg,left,18,word,,,,,,,,,,,,,,,,,,,,,,,,,,0,228,228,228,,,,,,,,,,,,,,,,,,,f,2.86674234929,,2018_Dec_13_1434,59.9758323519,Arrows_VVA_Direction,1003,Whi,
left_word_17_WHI.jpg,left,17,word,,,,,,,,,,,,,,,,,,,,,,,,,,0,229,229,229,,,,,,,,,,,,,,,,,,,f,1.65011957052,0,2018_Dec_13_1434,59.9758323519,Arrows_VVA_Direction,1003,Whi,
right_word_2_WHI.jpg,right,2,word,,,,,,,,,,,,,,,,,,,,,,,,,,0,230,230,230,,,,,,,,,,,,,,,,,,,f,1.98401606114,,2018_Dec_13_1434,59.9758323519,Arrows_VVA_Direction,1003,Whi,
left_word_12_WHI.jpg,left,12,word,,,,,,,,,,,,,,,,,,,,,,,,,,0,231,231,231,,,,,,,,,,,,,,,,,,,a,1.93421323313,0,2018_Dec_13_1434,59.9758323519,Arrows_VVA_Direction,1003,Whi,
left_word_2_WHI.jpg,left,2,word,,,,,,,,,,,,,,,,,,,,,,,,,,0,232,232,232,,,,,,,,,,,,,,,,,,,f,1.95087367472,,2018_Dec_13_1434,59.9758323519,Arrows_VVA_Direction,1003,Whi,
right_word_3_WHI.jpg,right,3,word,,,,,,,,,,,,,,,,,,,,,,,,,,0,233,233,233,,,,,,,,,,,,,,,,,,,a,1.40218087345,0,2018_Dec_13_1434,59.9758323519,Arrows_VVA_Direction,1003,Whi,
right_word_5_WHI.jpg,right,5,word,,,,,,,,,,,,,,,,,,,,,,,,,,0,234,234,234,,,,,,,,,,,,,,,,,,,f,1.28431053617,,2018_Dec_13_1434,59.9758323519,Arrows_VVA_Direction,1003,Whi,
right_word_9_WHI.jpg,right,9,word,,,,,,,,,,,,,,,,,,,,,,,,,,0,235,235,235,,,,,,,,,,,,,,,,,,,f,1.63435339771,0,2018_Dec_13_1434,59.9758323519,Arrows_VVA_Direction,1003,Whi,
ahead_word_14_WHI.jpg,ahead,14,word,,,,,,,,,,,,,,,,,,,,,,,,,,0,236,236,236,,,,,,,,,,,,,,,,,,,f,1.50018541351,,2018_Dec_13_1434,59.9758323519,Arrows_VVA_Direction,1003,Whi,
ahead_word_16_WHI.jpg,ahead,16,word,,,,,,,,,,,,,,,,,,,,,,,,,,0,237,237,237,,,,,,,,,,,,,,,,,,,f,1.23422389831,0,2018_Dec_13_1434,59.9758323519,Arrows_VVA_Direction,1003,Whi,
right_word_14_WHI.jpg,right,14,word,,,,,,,,,,,,,,,,,,,,,,,,,,0,238,238,238,,,,,,,,,,,,,,,,,,,f,1.26802226033,,2018_Dec_13_1434,59.9758323519,Arrows_VVA_Direction,1003,Whi,
left_word_6_WHI.jpg,left,6,word,,,,,,,,,,,,,,,,,,,,,,,,,,0,239,239,239,,,,,,,,,,,,,,,,,,,a,1.66766490981,0,2018_Dec_13_1434,59.9758323519,Arrows_VVA_Direction,1003,Whi,
ahead_word_3_WHI.jpg,ahead,3,word,,,,,,,,,,,,,,,,,,,,,,,,,,0,240,240,240,,,,,,,,,,,,,,,,,,,f,1.5546403134,,2018_Dec_13_1434,59.9758323519,Arrows_VVA_Direction,1003,Whi,
ahead_word_11_WHI.jpg,ahead,11,word,,,,,,,,,,,,,,,,,,,,,,,,,,0,241,241,241,,,,,,,,,,,,,,,,,,,f,1.3678073056,0,2018_Dec_13_1434,59.9758323519,Arrows_VVA_Direction,1003,Whi,
right_word_16_WHI.jpg,right,16,word,,,,,,,,,,,,,,,,,,,,,,,,,,0,242,242,242,,,,,,,,,,,,,,,,,,,f,1.30075142675,,2018_Dec_13_1434,59.9758323519,Arrows_VVA_Direction,1003,Whi,
right_word_1_WHI.jpg,right,1,word,,,,,,,,,,,,,,,,,,,,,,,,,,0,243,243,243,,,,,,,,,,,,,,,,,,,f,1.23455857974,0,2018_Dec_13_1434,59.9758323519,Arrows_VVA_Direction,1003,Whi,
left_word_1_WHI.jpg,left,1,word,,,,,,,,,,,,,,,,,,,,,,,,,,0,244,244,244,,,,,,,,,,,,,,,,,,,f,1.36772028843,,2018_Dec_13_1434,59.9758323519,Arrows_VVA_Direction,1003,Whi,
right_word_7_WHI.jpg,right,7,word,,,,,,,,,,,,,,,,,,,,,,,,,,0,245,245,245,,,,,,,,,,,,,,,,,,,a,1.60063268178,0,2018_Dec_13_1434,59.9758323519,Arrows_VVA_Direction,1003,Whi,
ahead_word_15_WHI.jpg,ahead,15,word,,,,,,,,,,,,,,,,,,,,,,,,,,0,246,246,246,,,,,,,,,,,,,,,,,,,f,1.34998574257,,2018_Dec_13_1434,59.9758323519,Arrows_VVA_Direction,1003,Whi,
right_word_17_WHI.jpg,right,17,word,,,,,,,,,,,,,,,,,,,,,,,,,,0,247,247,247,,,,,,,,,,,,,,,,,,,a,1.58402266552,0,2018_Dec_13_1434,59.9758323519,Arrows_VVA_Direction,1003,Whi,
left_word_8_WHI.jpg,left,8,word,,,,,,,,,,,,,,,,,,,,,,,,,,0,248,248,248,,,,,,,,,,,,,,,,,,,f,1.25059205145,,2018_Dec_13_1434,59.9758323519,Arrows_VVA_Direction,1003,Whi,
left_word_21_WHI.jpg,left,21,word,,,,,,,,,,,,,,,,,,,,,,,,,,0,249,249,249,,,,,,,,,,,,,,,,,,,f,1.31747835838,0,2018_Dec_13_1434,59.9758323519,Arrows_VVA_Direction,1003,Whi,
ahead_word_10_WHI.jpg,ahead,10,word,,,,,,,,,,,,,,,,,,,,,,,,,,0,250,250,250,,,,,,,,,,,,,,,,,,,f,1.83491102159,,2018_Dec_13_1434,59.9758323519,Arrows_VVA_Direction,1003,Whi,
right_word_10_WHI.jpg,right,10,word,,,,,,,,,,,,,,,,,,,,,,,,,,0,251,251,251,,,,,,,,,,,,,,,,,,,a,2.08404341577,0,2018_Dec_13_1434,59.9758323519,Arrows_VVA_Direction,1003,Whi,
left_word_9_WHI.jpg,left,9,word,,,,,,,,,,,,,,,,,,,,,,,,,,0,252,252,252,,,,,,,,,,,,,,,,,,,f,2.30059479584,,2018_Dec_13_1434,59.9758323519,Arrows_VVA_Direction,1003,Whi,
left_word_4_WHI.jpg,left,4,word,,,,,,,,,,,,,,,,,,,,,,,,,,0,253,253,253,,,,,,,,,,,,,,,,,,,f,1.68395407814,0,2018_Dec_13_1434,59.9758323519,Arrows_VVA_Direction,1003,Whi,
right_word_18_WHI.jpg,right,18,word,,,,,,,,,,,,,,,,,,,,,,,,,,0,254,254,254,,,,,,,,,,,,,,,,,,,f,1.58417081783,,2018_Dec_13_1434,59.9758323519,Arrows_VVA_Direction,1003,Whi,
left_word_10_WHI.jpg,left,10,word,,,,,,,,,,,,,,,,,,,,,,,,,,0,255,255,255,,,,,,,,,,,,,,,,,,,a,1.11685067452,0,2018_Dec_13_1434,59.9758323519,Arrows_VVA_Direction,1003,Whi,
ahead_word_4_WHI.jpg,ahead,4,word,,,,,,,,,,,,,,,,,,,,,,,,,,0,256,256,256,,,,,,,,,,,,,,,,,,,f,1.40089435803,,2018_Dec_13_1434,59.9758323519,Arrows_VVA_Direction,1003,Whi,
right_word_21_WHI.jpg,right,21,word,,,,,,,,,,,,,,,,,,,,,,,,,,0,257,257,257,,,,,,,,,,,,,,,,,,,a,1.46739957437,0,2018_Dec_13_1434,59.9758323519,Arrows_VVA_Direction,1003,Whi,
right_word_11_WHI.jpg,right,11,word,,,,,,,,,,,,,,,,,,,,,,,,,,0,258,258,258,,,,,,,,,,,,,,,,,,,f,1.61774829011,,2018_Dec_13_1434,59.9758323519,Arrows_VVA_Direction,1003,Whi,
right_word_20_WHI.jpg,right,20,word,,,,,,,,,,,,,,,,,,,,,,,,,,0,259,259,259,,,,,,,,,,,,,,,,,,,f,1.35025750389,0,2018_Dec_13_1434,59.9758323519,Arrows_VVA_Direction,1003,Whi,
left_schema_11_WHI.jpg,left,11,schema,,,,,,,,,,,,,,,,,,,,,,,,,,0,260,260,260,,,,,,,,,,,,,,,,,,,f,7.44773904844,,2018_Dec_13_1434,59.9758323519,Arrows_VVA_Direction,1003,Whi,
ahead_schema_2_WHI.jpg,ahead,2,schema,,,,,,,,,,,,,,,,,,,,,,,,,,0,261,261,261,,,,,,,,,,,,,,,,,,,a,1.38498137163,0,2018_Dec_13_1434,59.9758323519,Arrows_VVA_Direction,1003,Whi,
left_schema_10_WHI.jpg,left,10,schema,,,,,,,,,,,,,,,,,,,,,,,,,,0,262,262,262,,,,,,,,,,,,,,,,,,,f,1.30059925826,,2018_Dec_13_1434,59.9758323519,Arrows_VVA_Direction,1003,Whi,
left_schema_20_WHI.jpg,left,20,schema,,,,,,,,,,,,,,,,,,,,,,,,,,0,263,263,263,,,,,,,,,,,,,,,,,,,f,1.15133580284,0,2018_Dec_13_1434,59.9758323519,Arrows_VVA_Direction,1003,Whi,
right_schema_5_WHI.jpg,right,5,schema,,,,,,,,,,,,,,,,,,,,,,,,,,0,264,264,264,,,,,,,,,,,,,,,,,,,f,1.18365621167,,2018_Dec_13_1434,59.9758323519,Arrows_VVA_Direction,1003,Whi,
right_schema_6_WHI.jpg,right,6,schema,,,,,,,,,,,,,,,,,,,,,,,,,,0,265,265,265,,,,,,,,,,,,,,,,,,,a,9.74669078158,1,2018_Dec_13_1434,59.9758323519,Arrows_VVA_Direction,1003,Whi,
left_schema_6_WHI.jpg,left,6,schema,,,,,,,,,,,,,,,,,,,,,,,,,,0,266,266,266,,,,,,,,,,,,,,,,,,,f,4.88173741609,,2018_Dec_13_1434,59.9758323519,Arrows_VVA_Direction,1003,Whi,
right_schema_20_WHI.jpg,right,20,schema,,,,,,,,,,,,,,,,,,,,,,,,,,0,267,267,267,,,,,,,,,,,,,,,,,,,a,1.35061717487,0,2018_Dec_13_1434,59.9758323519,Arrows_VVA_Direction,1003,Whi,
ahead_schema_4_WHI.jpg,ahead,4,schema,,,,,,,,,,,,,,,,,,,,,,,,,,0,268,268,268,,,,,,,,,,,,,,,,,,,f,1.46658696786,,2018_Dec_13_1434,59.9758323519,Arrows_VVA_Direction,1003,Whi,
left_schema_14_WHI.jpg,left,14,schema,,,,,,,,,,,,,,,,,,,,,,,,,,0,269,269,269,,,,,,,,,,,,,,,,,,,a,1.2845515068,0,2018_Dec_13_1434,59.9758323519,Arrows_VVA_Direction,1003,Whi,
right_schema_3_WHI.jpg,right,3,schema,,,,,,,,,,,,,,,,,,,,,,,,,,0,270,270,270,,,,,,,,,,,,,,,,,,,f,1.25040864603,,2018_Dec_13_1434,59.9758323519,Arrows_VVA_Direction,1003,Whi,
right_schema_10_WHI.jpg,right,10,schema,,,,,,,,,,,,,,,,,,,,,,,,,,0,271,271,271,,,,,,,,,,,,,,,,,,,f,1.20089453653,0,2018_Dec_13_1434,59.9758323519,Arrows_VVA_Direction,1003,Whi,
left_schema_21_WHI.jpg,left,21,schema,,,,,,,,,,,,,,,,,,,,,,,,,,0,272,272,272,,,,,,,,,,,,,,,,,,,f,1.28419317455,,2018_Dec_13_1434,59.9758323519,Arrows_VVA_Direction,1003,Whi,
ahead_schema_11_WHI.jpg,ahead,11,schema,,,,,,,,,,,,,,,,,,,,,,,,,,0,273,273,273,,,,,,,,,,,,,,,,,,,a,1.20013414032,0,2018_Dec_13_1434,59.9758323519,Arrows_VVA_Direction,1003,Whi,
left_schema_13_WHI.jpg,left,13,schema,,,,,,,,,,,,,,,,,,,,,,,,,,0,274,274,274,,,,,,,,,,,,,,,,,,,f,1.56792047255,,2018_Dec_13_1434,59.9758323519,Arrows_VVA_Direction,1003,Whi,
left_schema_7_WHI.jpg,left,7,schema,,,,,,,,,,,,,,,,,,,,,,,,,,0,275,275,275,,,,,,,,,,,,,,,,,,,f,1.56787674085,0,2018_Dec_13_1434,59.9758323519,Arrows_VVA_Direction,1003,Whi,
ahead_schema_18_WHI.jpg,ahead,18,schema,,,,,,,,,,,,,,,,,,,,,,,,,,0,276,276,276,,,,,,,,,,,,,,,,,,,f,1.10094616671,,2018_Dec_13_1434,59.9758323519,Arrows_VVA_Direction,1003,Whi,
ahead_schema_13_WHI.jpg,ahead,13,schema,,,,,,,,,,,,,,,,,,,,,,,,,,0,277,277,277,,,,,,,,,,,,,,,,,,,f,1.15146878292,0,2018_Dec_13_1434,59.9758323519,Arrows_VVA_Direction,1003,Whi,
ahead_schema_14_WHI.jpg,ahead,14,schema,,,,,,,,,,,,,,,,,,,,,,,,,,0,278,278,278,,,,,,,,,,,,,,,,,,,f,1.36751903333,,2018_Dec_13_1434,59.9758323519,Arrows_VVA_Direction,1003,Whi,
right_schema_8_WHI.jpg,right,8,schema,,,,,,,,,,,,,,,,,,,,,,,,,,0,279,279,279,,,,,,,,,,,,,,,,,,,a,0.967687177284,0,2018_Dec_13_1434,59.9758323519,Arrows_VVA_Direction,1003,Whi,
left_image_19_WHI.jpg,left,19,image,,,,,,,,,,,,,,,,,,,,,,,,,,0,280,280,280,,,,,,,,,,,,,,,,,,,f,7.59757949465,,2018_Dec_13_1434,59.9758323519,Arrows_VVA_Direction,1003,Whi,
ahead_image_1_WHI.jpg,ahead,1,image,,,,,,,,,,,,,,,,,,,,,,,,,,0,281,281,281,,,,,,,,,,,,,,,,,,,a,1.5007209038,0,2018_Dec_13_1434,59.9758323519,Arrows_VVA_Direction,1003,Whi,
right_image_19_WHI.jpg,right,19,image,,,,,,,,,,,,,,,,,,,,,,,,,,0,282,282,282,,,,,,,,,,,,,,,,,,,f,3.1333268182,,2018_Dec_13_1434,59.9758323519,Arrows_VVA_Direction,1003,Whi,
ahead_image_4_WHI.jpg,ahead,4,image,,,,,,,,,,,,,,,,,,,,,,,,,,0,283,283,283,,,,,,,,,,,,,,,,,,,a,2.16736436589,0,2018_Dec_13_1434,59.9758323519,Arrows_VVA_Direction,1003,Whi,
left_image_6_WHI.jpg,left,6,image,,,,,,,,,,,,,,,,,,,,,,,,,,0,284,284,284,,,,,,,,,,,,,,,,,,,f,2.78340667319,,2018_Dec_13_1434,59.9758323519,Arrows_VVA_Direction,1003,Whi,
left_image_17_WHI.jpg,left,17,image,,,,,,,,,,,,,,,,,,,,,,,,,,0,285,285,285,,,,,,,,,,,,,,,,,,,f,1.33441368499,0,2018_Dec_13_1434,59.9758323519,Arrows_VVA_Direction,1003,Whi,
right_image_13_WHI.jpg,right,13,image,,,,,,,,,,,,,,,,,,,,,,,,,,0,286,286,286,,,,,,,,,,,,,,,,,,,f,3.41661144423,,2018_Dec_13_1434,59.9758323519,Arrows_VVA_Direction,1003,Whi,
right_image_15_WHI.jpg,right,15,image,,,,,,,,,,,,,,,,,,,,,,,,,,0,287,287,287,,,,,,,,,,,,,,,,,,,f,2.23414357476,0,2018_Dec_13_1434,59.9758323519,Arrows_VVA_Direction,1003,Whi,
ahead_image_11_WHI.jpg,ahead,11,image,,,,,,,,,,,,,,,,,,,,,,,,,,0,288,288,288,,,,,,,,,,,,,,,,,,,f,1.76747717584,,2018_Dec_13_1434,59.9758323519,Arrows_VVA_Direction,1003,Whi,
right_image_11_WHI.jpg,right,11,image,,,,,,,,,,,,,,,,,,,,,,,,,,0,289,289,289,,,,,,,,,,,,,,,,,,,a,4.38262655309,0,2018_Dec_13_1434,59.9758323519,Arrows_VVA_Direction,1003,Whi,
left_image_13_WHI.jpg,left,13,image,,,,,,,,,,,,,,,,,,,,,,,,,,0,290,290,290,,,,,,,,,,,,,,,,,,,f,2.55045634929,,2018_Dec_13_1434,59.9758323519,Arrows_VVA_Direction,1003,Whi,
right_image_8_WHI.jpg,right,8,image,,,,,,,,,,,,,,,,,,,,,,,,,,0,291,291,291,,,,,,,,,,,,,,,,,,,a,3.81663964672,0,2018_Dec_13_1434,59.9758323519,Arrows_VVA_Direction,1003,Whi,
right_image_12_WHI.jpg,right,12,image,,,,,,,,,,,,,,,,,,,,,,,,,,0,292,292,292,,,,,,,,,,,,,,,,,,,f,2.83376462614,,2018_Dec_13_1434,59.9758323519,Arrows_VVA_Direction,1003,Whi,
right_image_2_WHI.jpg,right,2,image,,,,,,,,,,,,,,,,,,,,,,,,,,0,293,293,293,,,,,,,,,,,,,,,,,,,f,2.23378925869,0,2018_Dec_13_1434,59.9758323519,Arrows_VVA_Direction,1003,Whi,
ahead_image_6_WHI.jpg,ahead,6,image,,,,,,,,,,,,,,,,,,,,,,,,,,0,294,294,294,,,,,,,,,,,,,,,,,,,f,1.53418369191,,2018_Dec_13_1434,59.9758323519,Arrows_VVA_Direction,1003,Whi,
ahead_image_10_WHI.jpg,ahead,10,image,,,,,,,,,,,,,,,,,,,,,,,,,,0,295,295,295,,,,,,,,,,,,,,,,,,,f,1.650465408,0,2018_Dec_13_1434,59.9758323519,Arrows_VVA_Direction,1003,Whi,
right_image_14_WHI.jpg,right,14,image,,,,,,,,,,,,,,,,,,,,,,,,,,0,296,296,296,,,,,,,,,,,,,,,,,,,f,2.28301420343,,2018_Dec_13_1434,59.9758323519,Arrows_VVA_Direction,1003,Whi,
left_image_11_WHI.jpg,left,11,image,,,,,,,,,,,,,,,,,,,,,,,,,,0,297,297,297,,,,,,,,,,,,,,,,,,,a,3.03347260543,0,2018_Dec_13_1434,59.9758323519,Arrows_VVA_Direction,1003,Whi,
left_image_2_WHI.jpg,left,2,image,,,,,,,,,,,,,,,,,,,,,,,,,,0,298,298,298,,,,,,,,,,,,,,,,,,,f,3.68296163614,,2018_Dec_13_1434,59.9758323519,Arrows_VVA_Direction,1003,Whi,
ahead_image_18_WHI.jpg,ahead,18,image,,,,,,,,,,,,,,,,,,,,,,,,,,0,299,299,299,,,,,,,,,,,,,,,,,,,a,1.65115128181,0,2018_Dec_13_1434,59.9758323519,Arrows_VVA_Direction,1003,Whi,
ahead_word_17_WHI.jpg,ahead,17,word,,,,,,,,,,,,,,,,,,,,,,,,,,0,300,300,300,,,,,,,,,,,,,,,,,,,f,22.3405459413,,2018_Dec_13_1434,59.9758323519,Arrows_VVA_Direction,1003,Whi,
ahead_word_13_WHI.jpg,ahead,13,word,,,,,,,,,,,,,,,,,,,,,,,,,,0,301,301,301,,,,,,,,,,,,,,,,,,,f,5.58224305279,0,2018_Dec_13_1434,59.9758323519,Arrows_VVA_Direction,1003,Whi,
ahead_word_19_WHI.jpg,ahead,19,word,,,,,,,,,,,,,,,,,,,,,,,,,,0,302,302,302,,,,,,,,,,,,,,,,,,,f,2.90031535916,,2018_Dec_13_1434,59.9758323519,Arrows_VVA_Direction,1003,Whi,
left_word_5_WHI.jpg,left,5,word,,,,,,,,,,,,,,,,,,,,,,,,,,0,303,303,303,,,,,,,,,,,,,,,,,,,a,1.40073103349,0,2018_Dec_13_1434,59.9758323519,Arrows_VVA_Direction,1003,Whi,
ahead_word_1_WHI.jpg,ahead,1,word,,,,,,,,,,,,,,,,,,,,,,,,,,0,304,304,304,,,,,,,,,,,,,,,,,,,f,1.6507518953,,2018_Dec_13_1434,59.9758323519,Arrows_VVA_Direction,1003,Whi,
ahead_word_12_WHI.jpg,ahead,12,word,,,,,,,,,,,,,,,,,,,,,,,,,,0,305,305,305,,,,,,,,,,,,,,,,,,,f,2.48377308242,0,2018_Dec_13_1434,59.9758323519,Arrows_VVA_Direction,1003,Whi,
left_word_13_WHI.jpg,left,13,word,,,,,,,,,,,,,,,,,,,,,,,,,,0,306,306,306,,,,,,,,,,,,,,,,,,,f,1.41744814781,,2018_Dec_13_1434,59.9758323519,Arrows_VVA_Direction,1003,Whi,
right_word_4_WHI.jpg,right,4,word,,,,,,,,,,,,,,,,,,,,,,,,,,0,307,307,307,,,,,,,,,,,,,,,,,,,a,1.65066264692,0,2018_Dec_13_1434,59.9758323519,Arrows_VVA_Direction,1003,Whi,
ahead_word_5_WHI.jpg,ahead,5,word,,,,,,,,,,,,,,,,,,,,,,,,,,0,308,308,308,,,,,,,,,,,,,,,,,,,f,2.51735992578,,2018_Dec_13_1434,59.9758323519,Arrows_VVA_Direction,1003,Whi,
left_word_15_WHI.jpg,left,15,word,,,,,,,,,,,,,,,,,,,,,,,,,,0,309,309,309,,,,,,,,,,,,,,,,,,,a,1.33441502372,0,2018_Dec_13_1434,59.9758323519,Arrows_VVA_Direction,1003,Whi,
left_word_7_WHI.jpg,left,7,word,,,,,,,,,,,,,,,,,,,,,,,,,,0,310,310,310,,,,,,,,,,,,,,,,,,,f,1.8342572772,,2018_Dec_13_1434,59.9758323519,Arrows_VVA_Direction,1003,Whi,
left_word_11_WHI.jpg,left,11,word,,,,,,,,,,,,,,,,,,,,,,,,,,0,311,311,311,,,,,,,,,,,,,,,,,,,f,1.50079497996,0,2018_Dec_13_1434,59.9758323519,Arrows_VVA_Direction,1003,Whi,
ahead_word_9_WHI.jpg,ahead,9,word,,,,,,,,,,,,,,,,,,,,,,,,,,0,312,312,312,,,,,,,,,,,,,,,,,,,f,1.41753784243,,2018_Dec_13_1434,59.9758323519,Arrows_VVA_Direction,1003,Whi,
left_word_19_WHI.jpg,left,19,word,,,,,,,,,,,,,,,,,,,,,,,,,,0,313,313,313,,,,,,,,,,,,,,,,,,,a,1.68396032552,0,2018_Dec_13_1434,59.9758323519,Arrows_VVA_Direction,1003,Whi,
ahead_word_8_WHI.jpg,ahead,8,word,,,,,,,,,,,,,,,,,,,,,,,,,,0,314,314,314,,,,,,,,,,,,,,,,,,,f,1.83319656019,,2018_Dec_13_1434,59.9758323519,Arrows_VVA_Direction,1003,Whi,
right_word_15_WHI.jpg,right,15,word,,,,,,,,,,,,,,,,,,,,,,,,,,0,315,315,315,,,,,,,,,,,,,,,,,,,a,1.25102624482,0,2018_Dec_13_1434,59.9758323519,Arrows_VVA_Direction,1003,Whi,
ahead_word_2_WHI.jpg,ahead,2,word,,,,,,,,,,,,,,,,,,,,,,,,,,0,316,316,316,,,,,,,,,,,,,,,,,,,f,1.35087376397,,2018_Dec_13_1434,59.9758323519,Arrows_VVA_Direction,1003,Whi,
ahead_word_6_WHI.jpg,ahead,6,word,,,,,,,,,,,,,,,,,,,,,,,,,,0,317,317,317,,,,,,,,,,,,,,,,,,,f,1.2523591694,0,2018_Dec_13_1434,59.9758323519,Arrows_VVA_Direction,1003,Whi,
left_word_20_WHI.jpg,left,20,word,,,,,,,,,,,,,,,,,,,,,,,,,,0,318,318,318,,,,,,,,,,,,,,,,,,,f,1.23444300308,,2018_Dec_13_1434,59.9758323519,Arrows_VVA_Direction,1003,Whi,
ahead_word_21_WHI.jpg,ahead,21,word,,,,,,,,,,,,,,,,,,,,,,,,,,0,319,319,319,,,,,,,,,,,,,,,,,,,a,1.7008697701,0,2018_Dec_13_1434,59.9758323519,Arrows_VVA_Direction,1003,Whi,
