Stimulus,direction,number,format,Stimulus_Practice,Direction,Number,Background,Format,trials_5.thisRepN,trials_5.thisTrialN,trials_5.thisN,trials_5.thisIndex,repeat_spatial_practice.thisRepN,repeat_spatial_practice.thisTrialN,repeat_spatial_practice.thisN,repeat_spatial_practice.thisIndex,trials.thisRepN,trials.thisTrialN,trials.thisN,trials.thisIndex,trials_3.thisRepN,trials_3.thisTrialN,trials_3.thisN,trials_3.thisIndex,trials_4.thisRepN,trials_4.thisTrialN,trials_4.thisN,trials_4.thisIndex,key_resp_7.keys,key_resp_7.rt,key_resp_4.keys,key_resp_4.rt,key_resp_3.keys,key_resp_3.rt,key_resp_6.keys,key_resp_6.rt,key_resp_11.keys,key_resp_11.rt,key_resp_2.keys,key_resp_2.rt,key_resp_12.keys,key_resp_12.rt,key_resp_14.keys,key_resp_14.rt,date,frameRate,expName,participant,Scr or Whi,
,,,,,,,,,,,,,,,,,,,,,,,,,,,,,d,0.33385059936,,,,,,,,,,,,,,,2018_Nov_05_1228,59.7459288299,Arrows_VVA_Direction,1003,Whi,
,,,,,,,,,,,,,,,,,,,,,,,,,,,,,,,d,1.40165314544,,,,,,,,,,,,,2018_Nov_05_1228,59.7459288299,Arrows_VVA_Direction,1003,Whi,
right_schema_1_WHI.jpg,right,1,schema,,,,,,0,0,0,0,,,,,,,,,,,,,,,,,,,,,d,3.45367380464,,,,,,,,,,,2018_Nov_05_1228,59.7459288299,Arrows_VVA_Direction,1003,Whi,
right_schema_2_WHI.jpg,right,2,schema,,,,,,0,1,1,1,,,,,,,,,,,,,,,,,,,,,d,4.12143995427,,,,,,,,,,,2018_Nov_05_1228,59.7459288299,Arrows_VVA_Direction,1003,Whi,
ahead_schema_1_WHI.jpg,ahead,1,schema,,,,,,0,2,2,2,,,,,,,,,,,,,,,,,,,,,d,3.38688735897,,,,,,,,,,,2018_Nov_05_1228,59.7459288299,Arrows_VVA_Direction,1003,Whi,
ahead_schema_2_WHI.jpg,ahead,2,schema,,,,,,0,3,3,3,,,,,,,,,,,,,,,,,,,,,d,1.43478744244,,,,,,,,,,,2018_Nov_05_1228,59.7459288299,Arrows_VVA_Direction,1003,Whi,
left_schema_1_WHI.jpg,left,1,schema,,,,,,0,4,4,4,,,,,,,,,,,,,,,,,,,,,d,2.35297891824,,,,,,,,,,,2018_Nov_05_1228,59.7459288299,Arrows_VVA_Direction,1003,Whi,
left_schema_2_WHI.jpg,left,2,schema,,,,,,0,5,5,5,,,,,,,,,,,,,,,,,,,,,d,2.25257309247,,,,,,,,,,,2018_Nov_05_1228,59.7459288299,Arrows_VVA_Direction,1003,Whi,
right_word_1_WHI.jpg,right,1,word,,,,,,0,6,6,6,,,,,,,,,,,,,,,,,,,,,d,3.32033555629,,,,,,,,,,,2018_Nov_05_1228,59.7459288299,Arrows_VVA_Direction,1003,Whi,
right_word_2_WHI.jpg,right,2,word,,,,,,0,7,7,7,,,,,,,,,,,,,,,,,,,,,d,3.22026794264,,,,,,,,,,,2018_Nov_05_1228,59.7459288299,Arrows_VVA_Direction,1003,Whi,
ahead_word_1_WHI.jpg,ahead,1,word,,,,,,0,8,8,8,,,,,,,,,,,,,,,,,,,,,d,1.46881730016,,,,,,,,,,,2018_Nov_05_1228,59.7459288299,Arrows_VVA_Direction,1003,Whi,
ahead_word_2_WHI.jpg,ahead,2,word,,,,,,0,9,9,9,,,,,,,,,,,,,,,,,,,,,d,0.584258078597,,,,,,,,,,,2018_Nov_05_1228,59.7459288299,Arrows_VVA_Direction,1003,Whi,
left_word_1_WHI.jpg,left,1,word,,,,,,0,10,10,10,,,,,,,,,,,,,,,,,,,,,d,0.600930844899,,,,,,,,,,,2018_Nov_05_1228,59.7459288299,Arrows_VVA_Direction,1003,Whi,
left_word_2_WHI.jpg,left,2,word,,,,,,0,11,11,11,,,,,,,,,,,,,,,,,,,,,d,0.371711387765,,,,,,,,,,,2018_Nov_05_1228,59.7459288299,Arrows_VVA_Direction,1003,Whi,
right_image_1_WHI.jpg,right,1,image,,,,,,0,12,12,12,,,,,,,,,,,,,,,,,,,,,d,46.9480229337,,,,,,,,,,,2018_Nov_05_1228,59.7459288299,Arrows_VVA_Direction,1003,Whi,
right_image_2_WHI.jpg,right,2,image,,,,,,0,13,13,13,,,,,,,,,,,,,,,,,,,,,d,0.700816771481,,,,,,,,,,,2018_Nov_05_1228,59.7459288299,Arrows_VVA_Direction,1003,Whi,
ahead_image_1_WHI.jpg,ahead,1,image,,,,,,0,14,14,14,,,,,,,,,,,,,,,,,,,,,d,0.684440672398,,,,,,,,,,,2018_Nov_05_1228,59.7459288299,Arrows_VVA_Direction,1003,Whi,
ahead_image_2_WHI.jpg,ahead,2,image,,,,,,0,15,15,15,,,,,,,,,,,,,,,,,,,,,d,0.417500275653,,,,,,,,,,,2018_Nov_05_1228,59.7459288299,Arrows_VVA_Direction,1003,Whi,
left_image_1_WHI.jpg,left,1,image,,,,,,0,16,16,16,,,,,,,,,,,,,,,,,,,,,d,1.75205977587,,,,,,,,,,,2018_Nov_05_1228,59.7459288299,Arrows_VVA_Direction,1003,Whi,
left_image_2_WHI.jpg,left,2,image,,,,,,0,17,17,17,,,,,,,,,,,,,,,,,,,,,d,6.85738548217,,,,,,,,,,,2018_Nov_05_1228,59.7459288299,Arrows_VVA_Direction,1003,Whi,
,,,,ahead_schema_2_WHI.jpg,ahead,2,_WHI,schema,,,,,0,0,0,0,0,0,0,0,,,,,,,,,,,,,,,d,1.74946642295,f,1.08484863397,,,,,,,2018_Nov_05_1228,59.7459288299,Arrows_VVA_Direction,1003,Whi,
,,,,right_schema_1_WHI.jpg,right,1,_WHI,schema,,,,,0,0,0,0,0,1,1,1,,,,,,,,,,,,,,,,,f,0.497653723694,,,,,,,2018_Nov_05_1228,59.7459288299,Arrows_VVA_Direction,1003,Whi,
,,,,left_schema_2_WHI.jpg,left,2,_WHI,schema,,,,,0,0,0,0,0,2,2,2,,,,,,,,,,,,,,,,,f,0.300972302444,,,,,,,2018_Nov_05_1228,59.7459288299,Arrows_VVA_Direction,1003,Whi,
,,,,left_schema_1_WHI.jpg,left,1,_WHI,schema,,,,,0,0,0,0,0,3,3,3,,,,,,,,,,,,,,,,,f,0.21723075863,,,,,,,2018_Nov_05_1228,59.7459288299,Arrows_VVA_Direction,1003,Whi,
,,,,right_schema_2_WHI.jpg,right,2,_WHI,schema,,,,,0,0,0,0,0,4,4,4,,,,,,,,,,,,,,,,,f,0.250740132295,,,,,,,2018_Nov_05_1228,59.7459288299,Arrows_VVA_Direction,1003,Whi,
,,,,right_schema_3_WHI.jpg,right,3,_WHI,schema,,,,,0,0,0,0,0,5,5,5,,,,,,,,,,,,,,,,,f,0.183843972627,,,,,,,2018_Nov_05_1228,59.7459288299,Arrows_VVA_Direction,1003,Whi,
,,,,ahead_schema_3_WHI.jpg,ahead,3,_WHI,schema,,,,,0,0,0,0,0,6,6,6,,,,,,,,,,,,,,,,,f,0.267484579701,,,,,,,2018_Nov_05_1228,59.7459288299,Arrows_VVA_Direction,1003,Whi,
,,,,ahead_schema_1_WHI.jpg,ahead,1,_WHI,schema,,,,,0,0,0,0,0,7,7,7,,,,,,,,,,,,,,,,,f,0.10083239479,,,,,,,2018_Nov_05_1228,59.7459288299,Arrows_VVA_Direction,1003,Whi,
,,,,left_word_1_WHI.jpg,left,1,_WHI,word,,,,,0,0,0,0,,,,,0,0,0,0,,,,,,,,,,,,,,,d,0.834510201588,f,0.334950960707,,,2018_Nov_05_1228,59.7459288299,Arrows_VVA_Direction,1003,Whi,
,,,,left_word_2_WHI.jpg,left,2,_WHI,word,,,,,0,0,0,0,,,,,0,1,1,1,,,,,,,,,,,,,,,,,f,0.100480431691,,,2018_Nov_05_1228,59.7459288299,Arrows_VVA_Direction,1003,Whi,
,,,,right_word_2_WHI.jpg,right,2,_WHI,word,,,,,0,0,0,0,,,,,0,2,2,2,,,,,,,,,,,,,,,,,f,0.250781677663,,,2018_Nov_05_1228,59.7459288299,Arrows_VVA_Direction,1003,Whi,
,,,,ahead_word_2_WHI.jpg,ahead,2,_WHI,word,,,,,0,0,0,0,,,,,0,3,3,3,,,,,,,,,,,,,,,,,f,0.0672855721787,,,2018_Nov_05_1228,59.7459288299,Arrows_VVA_Direction,1003,Whi,
,,,,ahead_word_1_WHI.jpg,ahead,1,_WHI,word,,,,,0,0,0,0,,,,,0,4,4,4,,,,,,,,,,,,,,,,,f,0.0840504993685,,,2018_Nov_05_1228,59.7459288299,Arrows_VVA_Direction,1003,Whi,
,,,,right_word_1_WHI.jpg,right,1,_WHI,word,,,,,0,0,0,0,,,,,0,5,5,5,,,,,,,,,,,,,,,,,f,0.133826842997,,,2018_Nov_05_1228,59.7459288299,Arrows_VVA_Direction,1003,Whi,
,,,,left_word_3_WHI.jpg,left,3,_WHI,word,,,,,0,0,0,0,,,,,0,6,6,6,,,,,,,,,,,,,,,,,f,0.31689403858,,,2018_Nov_05_1228,59.7459288299,Arrows_VVA_Direction,1003,Whi,
,,,,right_word_3_WHI.jpg,right,3,_WHI,word,,,,,0,0,0,0,,,,,0,7,7,7,,,,,,,,,,,,,,,,,f,0.100453222636,,,2018_Nov_05_1228,59.7459288299,Arrows_VVA_Direction,1003,Whi,
,,,,ahead_image_1_WHI.jpg,ahead,1,_WHI,image,,,,,0,0,0,0,,,,,,,,,0,0,0,0,,,,,,,,,,,d,2.61962176953,,,f,0.367407954764,2018_Nov_05_1228,59.7459288299,Arrows_VVA_Direction,1003,Whi,
,,,,ahead_image_2_WHI.jpg,ahead,2,_WHI,image,,,,,0,0,0,0,,,,,,,,,0,1,1,1,,,,,,,,,,,,,,,f,0.083992277272,2018_Nov_05_1228,59.7459288299,Arrows_VVA_Direction,1003,Whi,
,,,,left_image_1_WHI.jpg,left,1,_WHI,image,,,,,0,0,0,0,,,,,,,,,0,2,2,2,,,,,,,,,,,,,,,f,0.117138862144,2018_Nov_05_1228,59.7459288299,Arrows_VVA_Direction,1003,Whi,
,,,,right_image_1_WHI.jpg,right,1,_WHI,image,,,,,0,0,0,0,,,,,,,,,0,3,3,3,,,,,,,,,,,,,,,f,0.120011035819,2018_Nov_05_1228,59.7459288299,Arrows_VVA_Direction,1003,Whi,
,,,,right_image_2_WHI.jpg,right,2,_WHI,image,,,,,0,0,0,0,,,,,,,,,0,4,4,4,,,,,,,,,,,,,,,f,0.24981999537,2018_Nov_05_1228,59.7459288299,Arrows_VVA_Direction,1003,Whi,
,,,,left_image_2_WHI.jpg,left,2,_WHI,image,,,,,0,0,0,0,,,,,,,,,0,5,5,5,,,,,,,,,,,,,,,f,0.0839299596846,2018_Nov_05_1228,59.7459288299,Arrows_VVA_Direction,1003,Whi,
,,,,left_image_3_WHI.jpg,left,3,_WHI,image,,,,,0,0,0,0,,,,,,,,,0,6,6,6,,,,,,,,,,,,,,,f,0.250892562326,2018_Nov_05_1228,59.7459288299,Arrows_VVA_Direction,1003,Whi,
,,,,ahead_image_3_WHI.jpg,ahead,3,_WHI,image,,,,,0,0,0,0,,,,,,,,,0,7,7,7,,,,,,,,,,,,,,,f,0.0671229022555,2018_Nov_05_1228,59.7459288299,Arrows_VVA_Direction,1003,Whi,
,,,,left_image_1_WHI.jpg,left,1,_WHI,image,,,,,1,0,1,0,0,0,0,0,,,,,,,,,,,,,,,d,1.56862335466,f,0.854901258368,,,,,,,2018_Nov_05_1228,59.7459288299,Arrows_VVA_Direction,1003,Whi,
