Stimulus,direction,number,format,Stimulus_Practice,Direction,Number,Background,Format,trials_5.thisRepN,trials_5.thisTrialN,trials_5.thisN,trials_5.thisIndex,repeat_spatial_practice.thisRepN,repeat_spatial_practice.thisTrialN,repeat_spatial_practice.thisN,repeat_spatial_practice.thisIndex,trials.thisRepN,trials.thisTrialN,trials.thisN,trials.thisIndex,trials_3.thisRepN,trials_3.thisTrialN,trials_3.thisN,trials_3.thisIndex,trials_4.thisRepN,trials_4.thisTrialN,trials_4.thisN,trials_4.thisIndex,trials_2.thisRepN,trials_2.thisTrialN,trials_2.thisN,trials_2.thisIndex,key_resp_7.keys,key_resp_7.rt,key_resp_4.keys,key_resp_4.rt,key_resp_3.keys,key_resp_3.rt,key_resp_6.keys,key_resp_6.rt,key_resp_11.keys,key_resp_11.rt,key_resp_2.keys,key_resp_2.rt,key_resp_12.keys,key_resp_12.rt,key_resp_14.keys,key_resp_14.rt,key_resp_13.keys,key_resp_13.rt,direction_response.keys,direction_response.rt,spatialdirection_correct,date,frameRate,expName,participant,Scr or Whi,
,,,,,,,,,,,,,,,,,,,,,,,,,,,,,,,,,d,0.430885025095,,,,,,,,,,,,,,,,,,,,2018_Nov_08_1210,60.2110229537,Arrows_VVA_Direction,1003,Whi,
,,,,,,,,,,,,,,,,,,,,,,,,,,,,,,,,,,,d,0.934286667952,,,,,,,,,,,,,,,,,,2018_Nov_08_1210,60.2110229537,Arrows_VVA_Direction,1003,Whi,
right_schema_1_WHI.jpg,right,1,schema,,,,,,0,0,0,0,,,,,,,,,,,,,,,,,,,,,,,,,d,2.48311539258,,,,,,,,,,,,,,,,2018_Nov_08_1210,60.2110229537,Arrows_VVA_Direction,1003,Whi,
right_schema_2_WHI.jpg,right,2,schema,,,,,,0,1,1,1,,,,,,,,,,,,,,,,,,,,,,,,,d,1.23341481569,,,,,,,,,,,,,,,,2018_Nov_08_1210,60.2110229537,Arrows_VVA_Direction,1003,Whi,
ahead_schema_1_WHI.jpg,ahead,1,schema,,,,,,0,2,2,2,,,,,,,,,,,,,,,,,,,,,,,,,d,0.916282905306,,,,,,,,,,,,,,,,2018_Nov_08_1210,60.2110229537,Arrows_VVA_Direction,1003,Whi,
ahead_schema_2_WHI.jpg,ahead,2,schema,,,,,,0,3,3,3,,,,,,,,,,,,,,,,,,,,,,,,,d,0.568100238467,,,,,,,,,,,,,,,,2018_Nov_08_1210,60.2110229537,Arrows_VVA_Direction,1003,Whi,
left_schema_1_WHI.jpg,left,1,schema,,,,,,0,4,4,4,,,,,,,,,,,,,,,,,,,,,,,,,d,0.684553515968,,,,,,,,,,,,,,,,2018_Nov_08_1210,60.2110229537,Arrows_VVA_Direction,1003,Whi,
left_schema_2_WHI.jpg,left,2,schema,,,,,,0,5,5,5,,,,,,,,,,,,,,,,,,,,,,,,,d,0.38509961731,,,,,,,,,,,,,,,,2018_Nov_08_1210,60.2110229537,Arrows_VVA_Direction,1003,Whi,
right_word_1_WHI.jpg,right,1,word,,,,,,0,6,6,6,,,,,,,,,,,,,,,,,,,,,,,,,d,1.31818056061,,,,,,,,,,,,,,,,2018_Nov_08_1210,60.2110229537,Arrows_VVA_Direction,1003,Whi,
right_word_2_WHI.jpg,right,2,word,,,,,,0,7,7,7,,,,,,,,,,,,,,,,,,,,,,,,,d,0.33495807184,,,,,,,,,,,,,,,,2018_Nov_08_1210,60.2110229537,Arrows_VVA_Direction,1003,Whi,
ahead_word_1_WHI.jpg,ahead,1,word,,,,,,0,8,8,8,,,,,,,,,,,,,,,,,,,,,,,,,d,0.801704703666,,,,,,,,,,,,,,,,2018_Nov_08_1210,60.2110229537,Arrows_VVA_Direction,1003,Whi,
ahead_word_2_WHI.jpg,ahead,2,word,,,,,,0,9,9,9,,,,,,,,,,,,,,,,,,,,,,,,,d,0.369069102034,,,,,,,,,,,,,,,,2018_Nov_08_1210,60.2110229537,Arrows_VVA_Direction,1003,Whi,
left_word_1_WHI.jpg,left,1,word,,,,,,0,10,10,10,,,,,,,,,,,,,,,,,,,,,,,,,d,0.650508974661,,,,,,,,,,,,,,,,2018_Nov_08_1210,60.2110229537,Arrows_VVA_Direction,1003,Whi,
left_word_2_WHI.jpg,left,2,word,,,,,,0,11,11,11,,,,,,,,,,,,,,,,,,,,,,,,,d,0.401299255324,,,,,,,,,,,,,,,,2018_Nov_08_1210,60.2110229537,Arrows_VVA_Direction,1003,Whi,
right_image_1_WHI.jpg,right,1,image,,,,,,0,12,12,12,,,,,,,,,,,,,,,,,,,,,,,,,d,1.33371620223,,,,,,,,,,,,,,,,2018_Nov_08_1210,60.2110229537,Arrows_VVA_Direction,1003,Whi,
right_image_2_WHI.jpg,right,2,image,,,,,,0,13,13,13,,,,,,,,,,,,,,,,,,,,,,,,,d,0.750858554487,,,,,,,,,,,,,,,,2018_Nov_08_1210,60.2110229537,Arrows_VVA_Direction,1003,Whi,
ahead_image_1_WHI.jpg,ahead,1,image,,,,,,0,14,14,14,,,,,,,,,,,,,,,,,,,,,,,,,d,0.850678008153,,,,,,,,,,,,,,,,2018_Nov_08_1210,60.2110229537,Arrows_VVA_Direction,1003,Whi,
ahead_image_2_WHI.jpg,ahead,2,image,,,,,,0,15,15,15,,,,,,,,,,,,,,,,,,,,,,,,,d,0.450602326843,,,,,,,,,,,,,,,,2018_Nov_08_1210,60.2110229537,Arrows_VVA_Direction,1003,Whi,
left_image_1_WHI.jpg,left,1,image,,,,,,0,16,16,16,,,,,,,,,,,,,,,,,,,,,,,,,d,0.800987159166,,,,,,,,,,,,,,,,2018_Nov_08_1210,60.2110229537,Arrows_VVA_Direction,1003,Whi,
left_image_2_WHI.jpg,left,2,image,,,,,,0,17,17,17,,,,,,,,,,,,,,,,,,,,,,,,,d,0.616925393221,,,,,,,,,,,,,,,,2018_Nov_08_1210,60.2110229537,Arrows_VVA_Direction,1003,Whi,
,,,,ahead_image_1_WHI.jpg,ahead,1,_WHI,image,,,,,0,0,0,0,0,0,0,0,,,,,,,,,,,,,,,,,,,d,1.54970512848,f,1.13435039019,,,,,,,,,,,,2018_Nov_08_1210,60.2110229537,Arrows_VVA_Direction,1003,Whi,
,,,,ahead_image_2_WHI.jpg,ahead,2,_WHI,image,,,,,0,0,0,0,0,1,1,1,,,,,,,,,,,,,,,,,,,,,f,0.485032860682,,,,,,,,,,,,2018_Nov_08_1210,60.2110229537,Arrows_VVA_Direction,1003,Whi,
,,,,left_image_1_WHI.jpg,left,1,_WHI,image,,,,,0,0,0,0,0,2,2,2,,,,,,,,,,,,,,,,,,,,,f,0.467490057904,,,,,,,,,,,,2018_Nov_08_1210,60.2110229537,Arrows_VVA_Direction,1003,Whi,
,,,,right_image_1_WHI.jpg,right,1,_WHI,image,,,,,0,0,0,0,0,3,3,3,,,,,,,,,,,,,,,,,,,,,f,0.0506448975802,,,,,,,,,,,,2018_Nov_08_1210,60.2110229537,Arrows_VVA_Direction,1003,Whi,
,,,,right_image_2_WHI.jpg,right,2,_WHI,image,,,,,0,0,0,0,0,4,4,4,,,,,,,,,,,,,,,,,,,,,f,0.218049189282,,,,,,,,,,,,2018_Nov_08_1210,60.2110229537,Arrows_VVA_Direction,1003,Whi,
,,,,left_image_2_WHI.jpg,left,2,_WHI,image,,,,,0,0,0,0,0,5,5,5,,,,,,,,,,,,,,,,,,,,,f,0.000620265455836,,,,,,,,,,,,2018_Nov_08_1210,60.2110229537,Arrows_VVA_Direction,1003,Whi,
,,,,left_image_3_WHI.jpg,left,3,_WHI,image,,,,,0,0,0,0,0,6,6,6,,,,,,,,,,,,,,,,,,,,,f,0.465911281513,,,,,,,,,,,,2018_Nov_08_1210,60.2110229537,Arrows_VVA_Direction,1003,Whi,
,,,,ahead_image_3_WHI.jpg,ahead,3,_WHI,image,,,,,0,0,0,0,0,7,7,7,,,,,,,,,,,,,,,,,,,,,f,0.834149495578,,,,,,,,,,,,2018_Nov_08_1210,60.2110229537,Arrows_VVA_Direction,1003,Whi,
,,,,right_schema_3_WHI.jpg,right,3,_WHI,schema,,,,,0,0,0,0,,,,,0,0,0,0,,,,,,,,,,,,,,,,,,,d,0.600054619059,f,0.351797163379,,,,,,,,2018_Nov_08_1210,60.2110229537,Arrows_VVA_Direction,1003,Whi,
,,,,right_schema_2_WHI.jpg,right,2,_WHI,schema,,,,,0,0,0,0,,,,,0,1,1,1,,,,,,,,,,,,,,,,,,,,,f,0.0850964044239,,,,,,,,2018_Nov_08_1210,60.2110229537,Arrows_VVA_Direction,1003,Whi,
,,,,left_schema_3_WHI.jpg,left,3,_WHI,schema,,,,,0,0,0,0,,,,,0,2,2,2,,,,,,,,,,,,,,,,,,,,,f,0.267859629019,,,,,,,,2018_Nov_08_1210,60.2110229537,Arrows_VVA_Direction,1003,Whi,
,,,,ahead_schema_1_WHI.jpg,ahead,1,_WHI,schema,,,,,0,0,0,0,,,,,0,3,3,3,,,,,,,,,,,,,,,,,,,,,f,0.0339124560014,,,,,,,,2018_Nov_08_1210,60.2110229537,Arrows_VVA_Direction,1003,Whi,
,,,,ahead_schema_3_WHI.jpg,ahead,3,_WHI,schema,,,,,0,0,0,0,,,,,0,4,4,4,,,,,,,,,,,,,,,,,,,,,f,0.301373597932,,,,,,,,2018_Nov_08_1210,60.2110229537,Arrows_VVA_Direction,1003,Whi,
,,,,left_schema_1_WHI.jpg,left,1,_WHI,schema,,,,,0,0,0,0,,,,,0,5,5,5,,,,,,,,,,,,,,,,,,,,,f,0.101473643627,,,,,,,,2018_Nov_08_1210,60.2110229537,Arrows_VVA_Direction,1003,Whi,
,,,,ahead_schema_2_WHI.jpg,ahead,2,_WHI,schema,,,,,0,0,0,0,,,,,0,6,6,6,,,,,,,,,,,,,,,,,,,,,f,0.20101687836,,,,,,,,2018_Nov_08_1210,60.2110229537,Arrows_VVA_Direction,1003,Whi,
,,,,left_schema_2_WHI.jpg,left,2,_WHI,schema,,,,,0,0,0,0,,,,,0,7,7,7,,,,,,,,,,,,,,,,,,,,,f,0.18502786286,,,,,,,,2018_Nov_08_1210,60.2110229537,Arrows_VVA_Direction,1003,Whi,
,,,,left_word_1_WHI.jpg,left,1,_WHI,word,,,,,0,0,0,0,,,,,,,,,0,0,0,0,,,,,,,,,,,,,,,d,0.485700426957,,,f,3.41678625742,,,,,,2018_Nov_08_1210,60.2110229537,Arrows_VVA_Direction,1003,Whi,
,,,,left_word_2_WHI.jpg,left,2,_WHI,word,,,,,0,0,0,0,,,,,,,,,0,1,1,1,,,,,,,,,,,,,,,,,,,f,0.484493809839,,,,,,2018_Nov_08_1210,60.2110229537,Arrows_VVA_Direction,1003,Whi,
,,,,right_word_2_WHI.jpg,right,2,_WHI,word,,,,,0,0,0,0,,,,,,,,,0,2,2,2,,,,,,,,,,,,,,,,,,,f,3.64991994559,,,,,,2018_Nov_08_1210,60.2110229537,Arrows_VVA_Direction,1003,Whi,
,,,,ahead_word_2_WHI.jpg,ahead,2,_WHI,word,,,,,0,0,0,0,,,,,,,,,0,3,3,3,,,,,,,,,,,,,,,,,,,f,0.134747984806,,,,,,2018_Nov_08_1210,60.2110229537,Arrows_VVA_Direction,1003,Whi,
,,,,ahead_word_1_WHI.jpg,ahead,1,_WHI,word,,,,,0,0,0,0,,,,,,,,,0,4,4,4,,,,,,,,,,,,,,,,,,,f,0.517744946845,,,,,,2018_Nov_08_1210,60.2110229537,Arrows_VVA_Direction,1003,Whi,
,,,,right_word_1_WHI.jpg,right,1,_WHI,word,,,,,0,0,0,0,,,,,,,,,0,5,5,5,,,,,,,,,,,,,,,,,,,f,0.100777518367,,,,,,2018_Nov_08_1210,60.2110229537,Arrows_VVA_Direction,1003,Whi,
,,,,left_word_3_WHI.jpg,left,3,_WHI,word,,,,,0,0,0,0,,,,,,,,,0,6,6,6,,,,,,,,,,,,,,,,,,,f,0.284533167692,,,,,,2018_Nov_08_1210,60.2110229537,Arrows_VVA_Direction,1003,Whi,
,,,,right_word_3_WHI.jpg,right,3,_WHI,word,,,,,0,0,0,0,,,,,,,,,0,7,7,7,,,,,,,,,,,,,,,,,,,f,0.0345840383834,,,,,,2018_Nov_08_1210,60.2110229537,Arrows_VVA_Direction,1003,Whi,
,,,,ahead_word_2_WHI.jpg,ahead,2,_WHI,word,,,,,1,0,1,0,0,0,0,0,,,,,,,,,,,,,,,,,,,d,0.651344324972,f,0.302192883814,,,,,,,,,,,,2018_Nov_08_1210,60.2110229537,Arrows_VVA_Direction,1003,Whi,
,,,,left_word_3_WHI.jpg,left,3,_WHI,word,,,,,1,0,1,0,0,1,1,1,,,,,,,,,,,,,,,,,,,,,f,0.0182460677852,,,,,,,,,,,,2018_Nov_08_1210,60.2110229537,Arrows_VVA_Direction,1003,Whi,
,,,,right_word_3_WHI.jpg,right,3,_WHI,word,,,,,1,0,1,0,0,2,2,2,,,,,,,,,,,,,,,,,,,,,f,2.31698866922,,,,,,,,,,,,2018_Nov_08_1210,60.2110229537,Arrows_VVA_Direction,1003,Whi,
,,,,right_word_1_WHI.jpg,right,1,_WHI,word,,,,,1,0,1,0,0,3,3,3,,,,,,,,,,,,,,,,,,,,,f,0.0175262921157,,,,,,,,,,,,2018_Nov_08_1210,60.2110229537,Arrows_VVA_Direction,1003,Whi,
,,,,ahead_word_1_WHI.jpg,ahead,1,_WHI,word,,,,,1,0,1,0,0,4,4,4,,,,,,,,,,,,,,,,,,,,,f,0.250652840548,,,,,,,,,,,,2018_Nov_08_1210,60.2110229537,Arrows_VVA_Direction,1003,Whi,
,,,,ahead_word_3_WHI.jpg,ahead,3,_WHI,word,,,,,1,0,1,0,0,5,5,5,,,,,,,,,,,,,,,,,,,,,f,0.384890779732,,,,,,,,,,,,2018_Nov_08_1210,60.2110229537,Arrows_VVA_Direction,1003,Whi,
,,,,left_word_1_WHI.jpg,left,1,_WHI,word,,,,,1,0,1,0,0,6,6,6,,,,,,,,,,,,,,,,,,,,,f,4.38491933872,,,,,,,,,,,,2018_Nov_08_1210,60.2110229537,Arrows_VVA_Direction,1003,Whi,
,,,,left_word_2_WHI.jpg,left,2,_WHI,word,,,,,1,0,1,0,0,7,7,7,,,,,,,,,,,,,,,,,,,,,f,0.0690346527581,,,,,,,,,,,,2018_Nov_08_1210,60.2110229537,Arrows_VVA_Direction,1003,Whi,
,,,,ahead_image_1_WHI.jpg,ahead,1,_WHI,image,,,,,1,0,1,0,,,,,0,0,0,0,,,,,,,,,,,,,,,,,,,d,0.634415540371,f,0.567877567632,,,,,,,,2018_Nov_08_1210,60.2110229537,Arrows_VVA_Direction,1003,Whi,
,,,,ahead_image_2_WHI.jpg,ahead,2,_WHI,image,,,,,1,0,1,0,,,,,0,1,1,1,,,,,,,,,,,,,,,,,,,,,f,0.0180894396017,,,,,,,,2018_Nov_08_1210,60.2110229537,Arrows_VVA_Direction,1003,Whi,
,,,,left_image_1_WHI.jpg,left,1,_WHI,image,,,,,1,0,1,0,,,,,0,2,2,2,,,,,,,,,,,,,,,,,,,,,f,0.317899433105,,,,,,,,2018_Nov_08_1210,60.2110229537,Arrows_VVA_Direction,1003,Whi,
,,,,right_image_1_WHI.jpg,right,1,_WHI,image,,,,,1,0,1,0,,,,,0,3,3,3,,,,,,,,,,,,,,,,,,,,,f,0.000269525420663,,,,,,,,2018_Nov_08_1210,60.2110229537,Arrows_VVA_Direction,1003,Whi,
,,,,right_image_2_WHI.jpg,right,2,_WHI,image,,,,,1,0,1,0,,,,,0,4,4,4,,,,,,,,,,,,,,,,,,,,,f,0.334672035757,,,,,,,,2018_Nov_08_1210,60.2110229537,Arrows_VVA_Direction,1003,Whi,
,,,,left_image_2_WHI.jpg,left,2,_WHI,image,,,,,1,0,1,0,,,,,0,5,5,5,,,,,,,,,,,,,,,,,,,,,f,0.367924511463,,,,,,,,2018_Nov_08_1210,60.2110229537,Arrows_VVA_Direction,1003,Whi,
,,,,left_image_3_WHI.jpg,left,3,_WHI,image,,,,,1,0,1,0,,,,,0,6,6,6,,,,,,,,,,,,,,,,,,,,,f,0.284810725327,,,,,,,,2018_Nov_08_1210,60.2110229537,Arrows_VVA_Direction,1003,Whi,
,,,,ahead_image_3_WHI.jpg,ahead,3,_WHI,image,,,,,1,0,1,0,,,,,0,7,7,7,,,,,,,,,,,,,,,,,,,,,f,1.31745141403,,,,,,,,2018_Nov_08_1210,60.2110229537,Arrows_VVA_Direction,1003,Whi,
,,,,right_schema_3_WHI.jpg,right,3,_WHI,schema,,,,,1,0,1,0,,,,,,,,,0,0,0,0,,,,,,,,,,,,,,,d,0.550374033457,,,f,0.306711004491,,,,,,2018_Nov_08_1210,60.2110229537,Arrows_VVA_Direction,1003,Whi,
,,,,right_schema_2_WHI.jpg,right,2,_WHI,schema,,,,,1,0,1,0,,,,,,,,,0,1,1,1,,,,,,,,,,,,,,,,,,,f,0.0349352246512,,,,,,2018_Nov_08_1210,60.2110229537,Arrows_VVA_Direction,1003,Whi,
,,,,left_schema_3_WHI.jpg,left,3,_WHI,schema,,,,,1,0,1,0,,,,,,,,,0,2,2,2,,,,,,,,,,,,,,,,,,,f,0.251363691535,,,,,,2018_Nov_08_1210,60.2110229537,Arrows_VVA_Direction,1003,Whi,
,,,,ahead_schema_1_WHI.jpg,ahead,1,_WHI,schema,,,,,1,0,1,0,,,,,,,,,0,3,3,3,,,,,,,,,,,,,,,,,,,f,0.434570472866,,,,,,2018_Nov_08_1210,60.2110229537,Arrows_VVA_Direction,1003,Whi,
,,,,ahead_schema_3_WHI.jpg,ahead,3,_WHI,schema,,,,,1,0,1,0,,,,,,,,,0,4,4,4,,,,,,,,,,,,,,,,,,,f,0.267355830674,,,,,,2018_Nov_08_1210,60.2110229537,Arrows_VVA_Direction,1003,Whi,
,,,,left_schema_1_WHI.jpg,left,1,_WHI,schema,,,,,1,0,1,0,,,,,,,,,0,5,5,5,,,,,,,,,,,,,,,,,,,f,0.0178350861415,,,,,,2018_Nov_08_1210,60.2110229537,Arrows_VVA_Direction,1003,Whi,
,,,,ahead_schema_2_WHI.jpg,ahead,2,_WHI,schema,,,,,1,0,1,0,,,,,,,,,0,6,6,6,,,,,,,,,,,,,,,,,,,f,0.251220896609,,,,,,2018_Nov_08_1210,60.2110229537,Arrows_VVA_Direction,1003,Whi,
,,,,left_schema_2_WHI.jpg,left,2,_WHI,schema,,,,,1,0,1,0,,,,,,,,,0,7,7,7,,,,,,,,,,,,,,,,,,,f,0.0181309393765,,,,,,2018_Nov_08_1210,60.2110229537,Arrows_VVA_Direction,1003,Whi,
,,,,,,,,,,,,,,,,,,,,,,,,,,,,,,,,,,,,,,,,,,,,,,,,,d,0.467620804507,,,,2018_Nov_08_1210,60.2110229537,Arrows_VVA_Direction,1003,Whi,
right_schema_7_WHI.jpg,right,7,schema,,,,,,,,,,,,,,,,,,,,,,,,,,0,0,0,0,,,,,,,,,,,,,,,,,,,f,0.484041774655,,2018_Nov_08_1210,60.2110229537,Arrows_VVA_Direction,1003,Whi,
ahead_schema_1_WHI.jpg,ahead,1,schema,,,,,,,,,,,,,,,,,,,,,,,,,,0,1,1,1,,,,,,,,,,,,,,,,,,,f,0.0181956433262,1,2018_Nov_08_1210,60.2110229537,Arrows_VVA_Direction,1003,Whi,
right_schema_20_WHI.jpg,right,20,schema,,,,,,,,,,,,,,,,,,,,,,,,,,0,2,2,2,,,,,,,,,,,,,,,,,,,f,0.301361995845,,2018_Nov_08_1210,60.2110229537,Arrows_VVA_Direction,1003,Whi,
right_schema_11_WHI.jpg,right,11,schema,,,,,,,,,,,,,,,,,,,,,,,,,,0,3,3,3,,,,,,,,,,,,,,,,,,,f,0.0187775326467,0,2018_Nov_08_1210,60.2110229537,Arrows_VVA_Direction,1003,Whi,
ahead_schema_15_WHI.jpg,ahead,15,schema,,,,,,,,,,,,,,,,,,,,,,,,,,0,4,4,4,,,,,,,,,,,,,,,,,,,f,0.300422672978,,2018_Nov_08_1210,60.2110229537,Arrows_VVA_Direction,1003,Whi,
ahead_schema_4_WHI.jpg,ahead,4,schema,,,,,,,,,,,,,,,,,,,,,,,,,,0,5,5,5,,,,,,,,,,,,,,,,,,,f,0.500957172232,0,2018_Nov_08_1210,60.2110229537,Arrows_VVA_Direction,1003,Whi,
left_schema_2_WHI.jpg,left,2,schema,,,,,,,,,,,,,,,,,,,,,,,,,,0,6,6,6,,,,,,,,,,,,,,,,,,,f,0.284511748452,,2018_Nov_08_1210,60.2110229537,Arrows_VVA_Direction,1003,Whi,
ahead_schema_9_WHI.jpg,ahead,9,schema,,,,,,,,,,,,,,,,,,,,,,,,,,0,7,7,7,,,,,,,,,,,,,,,,,,,f,0.251483728519,1,2018_Nov_08_1210,60.2110229537,Arrows_VVA_Direction,1003,Whi,
ahead_schema_16_WHI.jpg,ahead,16,schema,,,,,,,,,,,,,,,,,,,,,,,,,,0,8,8,8,,,,,,,,,,,,,,,,,,,f,0.251486852158,,2018_Nov_08_1210,60.2110229537,Arrows_VVA_Direction,1003,Whi,
right_schema_4_WHI.jpg,right,4,schema,,,,,,,,,,,,,,,,,,,,,,,,,,0,9,9,9,,,,,,,,,,,,,,,,,,,f,0.134004558729,1,2018_Nov_08_1210,60.2110229537,Arrows_VVA_Direction,1003,Whi,
ahead_schema_17_WHI.jpg,ahead,17,schema,,,,,,,,,,,,,,,,,,,,,,,,,,0,10,10,10,,,,,,,,,,,,,,,,,,,f,0.433618209208,,2018_Nov_08_1210,60.2110229537,Arrows_VVA_Direction,1003,Whi,
ahead_schema_6_WHI.jpg,ahead,6,schema,,,,,,,,,,,,,,,,,,,,,,,,,,0,11,11,11,,,,,,,,,,,,,,,,,,,f,0.134713178543,0,2018_Nov_08_1210,60.2110229537,Arrows_VVA_Direction,1003,Whi,
left_schema_7_WHI.jpg,left,7,schema,,,,,,,,,,,,,,,,,,,,,,,,,,0,12,12,12,,,,,,,,,,,,,,,,,,,f,0.218289709484,,2018_Nov_08_1210,60.2110229537,Arrows_VVA_Direction,1003,Whi,
ahead_schema_10_WHI.jpg,ahead,10,schema,,,,,,,,,,,,,,,,,,,,,,,,,,0,13,13,13,,,,,,,,,,,,,,,,,,,f,0.151239459949,1,2018_Nov_08_1210,60.2110229537,Arrows_VVA_Direction,1003,Whi,
right_schema_16_WHI.jpg,right,16,schema,,,,,,,,,,,,,,,,,,,,,,,,,,0,14,14,14,,,,,,,,,,,,,,,,,,,f,0.218197339016,,2018_Nov_08_1210,60.2110229537,Arrows_VVA_Direction,1003,Whi,
left_schema_3_WHI.jpg,left,3,schema,,,,,,,,,,,,,,,,,,,,,,,,,,0,15,15,15,,,,,,,,,,,,,,,,,,,f,0.0848161693839,1,2018_Nov_08_1210,60.2110229537,Arrows_VVA_Direction,1003,Whi,
left_schema_10_WHI.jpg,left,10,schema,,,,,,,,,,,,,,,,,,,,,,,,,,0,16,16,16,,,,,,,,,,,,,,,,,,,f,0.267896666453,,2018_Nov_08_1210,60.2110229537,Arrows_VVA_Direction,1003,Whi,
left_schema_1_WHI.jpg,left,1,schema,,,,,,,,,,,,,,,,,,,,,,,,,,0,17,17,17,,,,,,,,,,,,,,,,,,,f,0.0681912702321,0,2018_Nov_08_1210,60.2110229537,Arrows_VVA_Direction,1003,Whi,
ahead_schema_7_WHI.jpg,ahead,7,schema,,,,,,,,,,,,,,,,,,,,,,,,,,0,18,18,18,,,,,,,,,,,,,,,,,,,f,0.268603055098,,2018_Nov_08_1210,60.2110229537,Arrows_VVA_Direction,1003,Whi,
