Stimulus_Practice,Direction,Number,Background,Format,repeat_spatial_practice.thisRepN,repeat_spatial_practice.thisTrialN,repeat_spatial_practice.thisN,repeat_spatial_practice.thisIndex,trials.thisRepN,trials.thisTrialN,trials.thisN,trials.thisIndex,trials_3.thisRepN,trials_3.thisTrialN,trials_3.thisN,trials_3.thisIndex,trials_4.thisRepN,trials_4.thisTrialN,trials_4.thisN,trials_4.thisIndex,key_resp_7.keys,key_resp_7.rt,key_resp_6.keys,key_resp_6.rt,key_resp_11.keys,key_resp_11.rt,key_resp_2.keys,key_resp_2.rt,key_resp_12.keys,key_resp_12.rt,key_resp_14.keys,key_resp_14.rt,key_resp_13.keys,key_resp_13.rt,date,frameRate,expName,participant,Scr or Whi,
,,,,,,,,,,,,,,,,,,,,,d,0.750928694382,,,,,,,,,,,,,2018_Nov_05_1105,59.942074218,Arrows_VVA_Direction,1003,Whi,
ahead_word_2_WHI.jpg,ahead,2,_WHI,word,0,0,0,0,0,0,0,0,,,,,,,,,,,d,1.95224532438,f,0.55096901115,,,,,,,,,2018_Nov_05_1105,59.942074218,Arrows_VVA_Direction,1003,Whi,
left_word_3_WHI.jpg,left,3,_WHI,word,0,0,0,0,0,1,1,1,,,,,,,,,,,,,f,1.01828571316,,,,,,,,,2018_Nov_05_1105,59.942074218,Arrows_VVA_Direction,1003,Whi,
right_word_3_WHI.jpg,right,3,_WHI,word,0,0,0,0,0,2,2,2,,,,,,,,,,,,,f,0.283805382904,,,,,,,,,2018_Nov_05_1105,59.942074218,Arrows_VVA_Direction,1003,Whi,
right_word_1_WHI.jpg,right,1,_WHI,word,0,0,0,0,0,3,3,3,,,,,,,,,,,,,f,0.217227833346,,,,,,,,,2018_Nov_05_1105,59.942074218,Arrows_VVA_Direction,1003,Whi,
ahead_word_1_WHI.jpg,ahead,1,_WHI,word,0,0,0,0,0,4,4,4,,,,,,,,,,,,,f,0.250862427521,,,,,,,,,2018_Nov_05_1105,59.942074218,Arrows_VVA_Direction,1003,Whi,
ahead_word_3_WHI.jpg,ahead,3,_WHI,word,0,0,0,0,0,5,5,5,,,,,,,,,,,,,f,0.134064118378,,,,,,,,,2018_Nov_05_1105,59.942074218,Arrows_VVA_Direction,1003,Whi,
left_word_1_WHI.jpg,left,1,_WHI,word,0,0,0,0,0,6,6,6,,,,,,,,,,,,,f,0.234112421982,,,,,,,,,2018_Nov_05_1105,59.942074218,Arrows_VVA_Direction,1003,Whi,
left_word_2_WHI.jpg,left,2,_WHI,word,0,0,0,0,0,7,7,7,,,,,,,,,,,,,f,0.350464852061,,,,,,,,,2018_Nov_05_1105,59.942074218,Arrows_VVA_Direction,1003,Whi,
left_image_1_WHI.jpg,left,1,_WHI,image,0,0,0,0,,,,,0,0,0,0,,,,,,,,,,,d,1.60278867371,f,0.584180839825,,,,,2018_Nov_05_1105,59.942074218,Arrows_VVA_Direction,1003,Whi,
ahead_image_2_WHI.jpg,ahead,2,_WHI,image,0,0,0,0,,,,,0,1,1,1,,,,,,,,,,,,,f,0.104666836094,,,,,2018_Nov_05_1105,59.942074218,Arrows_VVA_Direction,1003,Whi,
right_image_3_WHI.jpg,right,3,_WHI,image,0,0,0,0,,,,,0,2,2,2,,,,,,,,,,,,,f,0.250601161271,,,,,2018_Nov_05_1105,59.942074218,Arrows_VVA_Direction,1003,Whi,
right_image_2_WHI.jpg,right,2,_WHI,image,0,0,0,0,,,,,0,3,3,3,,,,,,,,,,,,,f,0.0836251000874,,,,,2018_Nov_05_1105,59.942074218,Arrows_VVA_Direction,1003,Whi,
left_image_3_WHI.jpg,left,3,_WHI,image,0,0,0,0,,,,,0,4,4,4,,,,,,,,,,,,,f,0.366471141577,,,,,2018_Nov_05_1105,59.942074218,Arrows_VVA_Direction,1003,Whi,
left_image_2_WHI.jpg,left,2,_WHI,image,0,0,0,0,,,,,0,5,5,5,,,,,,,,,,,,,f,0.0670992042869,,,,,2018_Nov_05_1105,59.942074218,Arrows_VVA_Direction,1003,Whi,
right_image_1_WHI.jpg,right,1,_WHI,image,0,0,0,0,,,,,0,6,6,6,,,,,,,,,,,,,f,0.346643869299,,,,,2018_Nov_05_1105,59.942074218,Arrows_VVA_Direction,1003,Whi,
ahead_image_3_WHI.jpg,ahead,3,_WHI,image,0,0,0,0,,,,,0,7,7,7,,,,,,,,,,,,,f,0.0872494746,,,,,2018_Nov_05_1105,59.942074218,Arrows_VVA_Direction,1003,Whi,
ahead_schema_2_WHI.jpg,ahead,2,_WHI,schema,0,0,0,0,,,,,,,,,0,0,0,0,,,,,,,d,0.562354134861,,,f,0.566617485136,,,2018_Nov_05_1105,59.942074218,Arrows_VVA_Direction,1003,Whi,
right_schema_1_WHI.jpg,right,1,_WHI,schema,0,0,0,0,,,,,,,,,0,1,1,1,,,,,,,,,,,f,0.0667089140043,,,2018_Nov_05_1105,59.942074218,Arrows_VVA_Direction,1003,Whi,
left_schema_2_WHI.jpg,left,2,_WHI,schema,0,0,0,0,,,,,,,,,0,2,2,2,,,,,,,,,,,f,0.317321777809,,,2018_Nov_05_1105,59.942074218,Arrows_VVA_Direction,1003,Whi,
left_schema_1_WHI.jpg,left,1,_WHI,schema,0,0,0,0,,,,,,,,,0,3,3,3,,,,,,,,,,,f,0.133594541345,,,2018_Nov_05_1105,59.942074218,Arrows_VVA_Direction,1003,Whi,
right_schema_2_WHI.jpg,right,2,_WHI,schema,0,0,0,0,,,,,,,,,0,4,4,4,,,,,,,,,,,f,0.217198868748,,,2018_Nov_05_1105,59.942074218,Arrows_VVA_Direction,1003,Whi,
right_schema_3_WHI.jpg,right,3,_WHI,schema,0,0,0,0,,,,,,,,,0,5,5,5,,,,,,,,,,,f,0.100473701954,,,2018_Nov_05_1105,59.942074218,Arrows_VVA_Direction,1003,Whi,
ahead_schema_3_WHI.jpg,ahead,3,_WHI,schema,0,0,0,0,,,,,,,,,0,6,6,6,,,,,,,,,,,f,0.300570016727,,,2018_Nov_05_1105,59.942074218,Arrows_VVA_Direction,1003,Whi,
ahead_schema_1_WHI.jpg,ahead,1,_WHI,schema,0,0,0,0,,,,,,,,,0,7,7,7,,,,,,,,,,,f,0.117180699948,,,2018_Nov_05_1105,59.942074218,Arrows_VVA_Direction,1003,Whi,
ahead_schema_2_WHI.jpg,ahead,2,_WHI,schema,1,0,1,0,0,0,0,0,,,,,,,,,,,d,3.8539389912,f,0.433912946377,,,,,,,,,2018_Nov_05_1105,59.942074218,Arrows_VVA_Direction,1003,Whi,
right_schema_1_WHI.jpg,right,1,_WHI,schema,1,0,1,0,0,1,1,1,,,,,,,,,,,,,f,0.0831394316629,,,,,,,,,2018_Nov_05_1105,59.942074218,Arrows_VVA_Direction,1003,Whi,
left_schema_2_WHI.jpg,left,2,_WHI,schema,1,0,1,0,0,2,2,2,,,,,,,,,,,,,f,0.350882058963,,,,,,,,,2018_Nov_05_1105,59.942074218,Arrows_VVA_Direction,1003,Whi,
left_schema_1_WHI.jpg,left,1,_WHI,schema,1,0,1,0,0,3,3,3,,,,,,,,,,,,,f,0.100424550474,,,,,,,,,2018_Nov_05_1105,59.942074218,Arrows_VVA_Direction,1003,Whi,
right_schema_2_WHI.jpg,right,2,_WHI,schema,1,0,1,0,0,4,4,4,,,,,,,,,,,,,f,0.364981075283,,,,,,,,,2018_Nov_05_1105,59.942074218,Arrows_VVA_Direction,1003,Whi,
right_schema_3_WHI.jpg,right,3,_WHI,schema,1,0,1,0,0,5,5,5,,,,,,,,,,,,,f,0.0670304498635,,,,,,,,,2018_Nov_05_1105,59.942074218,Arrows_VVA_Direction,1003,Whi,
ahead_schema_3_WHI.jpg,ahead,3,_WHI,schema,1,0,1,0,0,6,6,6,,,,,,,,,,,,,f,0.2840098897,,,,,,,,,2018_Nov_05_1105,59.942074218,Arrows_VVA_Direction,1003,Whi,
ahead_schema_1_WHI.jpg,ahead,1,_WHI,schema,1,0,1,0,0,7,7,7,,,,,,,,,,,,,f,0.100495645311,,,,,,,,,2018_Nov_05_1105,59.942074218,Arrows_VVA_Direction,1003,Whi,
ahead_image_1_WHI.jpg,ahead,1,_WHI,image,1,0,1,0,,,,,0,0,0,0,,,,,,,,,,,d,0.667409797665,f,0.350656193681,,,,,2018_Nov_05_1105,59.942074218,Arrows_VVA_Direction,1003,Whi,
ahead_image_2_WHI.jpg,ahead,2,_WHI,image,1,0,1,0,,,,,0,1,1,1,,,,,,,,,,,,,f,0.100390319712,,,,,2018_Nov_05_1105,59.942074218,Arrows_VVA_Direction,1003,Whi,
left_image_1_WHI.jpg,left,1,_WHI,image,1,0,1,0,,,,,0,2,2,2,,,,,,,,,,,,,f,0.235371941701,,,,,2018_Nov_05_1105,59.942074218,Arrows_VVA_Direction,1003,Whi,
right_image_1_WHI.jpg,right,1,_WHI,image,1,0,1,0,,,,,0,3,3,3,,,,,,,,,,,,,f,0.0684675606899,,,,,2018_Nov_05_1105,59.942074218,Arrows_VVA_Direction,1003,Whi,
right_image_2_WHI.jpg,right,2,_WHI,image,1,0,1,0,,,,,0,4,4,4,,,,,,,,,,,,,f,0.284619024023,,,,,2018_Nov_05_1105,59.942074218,Arrows_VVA_Direction,1003,Whi,
left_image_2_WHI.jpg,left,2,_WHI,image,1,0,1,0,,,,,0,5,5,5,,,,,,,,,,,,,f,0.0861891959794,,,,,2018_Nov_05_1105,59.942074218,Arrows_VVA_Direction,1003,Whi,
left_image_3_WHI.jpg,left,3,_WHI,image,1,0,1,0,,,,,0,6,6,6,,,,,,,,,,,,,f,0.284610831644,,,,,2018_Nov_05_1105,59.942074218,Arrows_VVA_Direction,1003,Whi,
ahead_image_3_WHI.jpg,ahead,3,_WHI,image,1,0,1,0,,,,,0,7,7,7,,,,,,,,,,,,,f,0.0839185495861,,,,,2018_Nov_05_1105,59.942074218,Arrows_VVA_Direction,1003,Whi,
ahead_word_2_WHI.jpg,ahead,2,_WHI,word,1,0,1,0,,,,,,,,,0,0,0,0,,,,,,,d,0.751128520817,,,f,0.267368428409,,,2018_Nov_05_1105,59.942074218,Arrows_VVA_Direction,1003,Whi,
left_word_3_WHI.jpg,left,3,_WHI,word,1,0,1,0,,,,,,,,,0,1,1,1,,,,,,,,,,,f,0.0666228979826,,,2018_Nov_05_1105,59.942074218,Arrows_VVA_Direction,1003,Whi,
right_word_3_WHI.jpg,right,3,_WHI,word,1,0,1,0,,,,,,,,,0,2,2,2,,,,,,,,,,,f,0.267904418986,,,2018_Nov_05_1105,59.942074218,Arrows_VVA_Direction,1003,Whi,
right_word_1_WHI.jpg,right,1,_WHI,word,1,0,1,0,,,,,,,,,0,3,3,3,,,,,,,,,,,f,0.0832093558274,,,2018_Nov_05_1105,59.942074218,Arrows_VVA_Direction,1003,Whi,
ahead_word_1_WHI.jpg,ahead,1,_WHI,word,1,0,1,0,,,,,,,,,0,4,4,4,,,,,,,,,,,f,0.150493758265,,,2018_Nov_05_1105,59.942074218,Arrows_VVA_Direction,1003,Whi,
ahead_word_3_WHI.jpg,ahead,3,_WHI,word,1,0,1,0,,,,,,,,,0,5,5,5,,,,,,,,,,,f,0.133844104595,,,2018_Nov_05_1105,59.942074218,Arrows_VVA_Direction,1003,Whi,
left_word_1_WHI.jpg,left,1,_WHI,word,1,0,1,0,,,,,,,,,0,6,6,6,,,,,,,,,,,f,0.500738596544,,,2018_Nov_05_1105,59.942074218,Arrows_VVA_Direction,1003,Whi,
left_word_2_WHI.jpg,left,2,_WHI,word,1,0,1,0,,,,,,,,,0,7,7,7,,,,,,,,,,,f,0.133774472401,,,2018_Nov_05_1105,59.942074218,Arrows_VVA_Direction,1003,Whi,
,,,,,,,,,,,,,,,,,,,,,,,,,,,,,,,,,d,1.13478208845,2018_Nov_05_1105,59.942074218,Arrows_VVA_Direction,1003,Whi,
