Stimulus,direction,number,format,Stimulus_Practice,Direction,Number,Background,Format,trials_5.thisRepN,trials_5.thisTrialN,trials_5.thisN,trials_5.thisIndex,repeat_spatial_practice.thisRepN,repeat_spatial_practice.thisTrialN,repeat_spatial_practice.thisN,repeat_spatial_practice.thisIndex,trials.thisRepN,trials.thisTrialN,trials.thisN,trials.thisIndex,trials_3.thisRepN,trials_3.thisTrialN,trials_3.thisN,trials_3.thisIndex,trials_4.thisRepN,trials_4.thisTrialN,trials_4.thisN,trials_4.thisIndex,trials_2.thisRepN,trials_2.thisTrialN,trials_2.thisN,trials_2.thisIndex,key_resp_7.keys,key_resp_7.rt,key_resp_4.keys,key_resp_4.rt,key_resp_3.keys,key_resp_3.rt,key_resp_6.keys,key_resp_6.rt,key_resp_11.keys,key_resp_11.rt,key_resp_2.keys,key_resp_2.rt,key_resp_12.keys,key_resp_12.rt,key_resp_14.keys,key_resp_14.rt,key_resp_13.keys,key_resp_13.rt,direction_response.keys,direction_response.rt,spatialdirection_correct,date,frameRate,expName,participant,Scr or Whi,
,,,,,,,,,,,,,,,,,,,,,,,,,,,,,,,,,d,39.1793892466,,,,,,,,,,,,,,,,,,,,2018_Dec_19_1209,60.0418777748,Arrows_VVA_Direction,1004,Whi,
,,,,,,,,,,,,,,,,,,,,,,,,,,,,,,,,,,,d,18.7086553526,,,,,,,,,,,,,,,,,,2018_Dec_19_1209,60.0418777748,Arrows_VVA_Direction,1004,Whi,
right_schema_1_WHI.jpg,right,1,schema,,,,,,0,0,0,0,,,,,,,,,,,,,,,,,,,,,,,,,d,84.908582883,,,,,,,,,,,,,,,,2018_Dec_19_1209,60.0418777748,Arrows_VVA_Direction,1004,Whi,
right_schema_3_WHI.jpg,right,3,schema,,,,,,0,1,1,1,,,,,,,,,,,,,,,,,,,,,,,,,d,10.6961378209,,,,,,,,,,,,,,,,2018_Dec_19_1209,60.0418777748,Arrows_VVA_Direction,1004,Whi,
ahead_schema_1_WHI.jpg,ahead,1,schema,,,,,,0,2,2,2,,,,,,,,,,,,,,,,,,,,,,,,,d,4.14946471052,,,,,,,,,,,,,,,,2018_Dec_19_1209,60.0418777748,Arrows_VVA_Direction,1004,Whi,
ahead_schema_3_WHI.jpg,ahead,3,schema,,,,,,0,3,3,3,,,,,,,,,,,,,,,,,,,,,,,,,d,3.21798426283,,,,,,,,,,,,,,,,2018_Dec_19_1209,60.0418777748,Arrows_VVA_Direction,1004,Whi,
left_schema_1_WHI.jpg,left,1,schema,,,,,,0,4,4,4,,,,,,,,,,,,,,,,,,,,,,,,,d,3.06657304511,,,,,,,,,,,,,,,,2018_Dec_19_1209,60.0418777748,Arrows_VVA_Direction,1004,Whi,
left_schema_2_WHI.jpg,left,2,schema,,,,,,0,5,5,5,,,,,,,,,,,,,,,,,,,,,,,,,d,5.11544635124,,,,,,,,,,,,,,,,2018_Dec_19_1209,60.0418777748,Arrows_VVA_Direction,1004,Whi,
right_word_1_WHI.jpg,right,1,word,,,,,,0,6,6,6,,,,,,,,,,,,,,,,,,,,,,,,,d,15.7433113916,,,,,,,,,,,,,,,,2018_Dec_19_1209,60.0418777748,Arrows_VVA_Direction,1004,Whi,
right_word_2_WHI.jpg,right,2,word,,,,,,0,7,7,7,,,,,,,,,,,,,,,,,,,,,,,,,d,29.0692571902,,,,,,,,,,,,,,,,2018_Dec_19_1209,60.0418777748,Arrows_VVA_Direction,1004,Whi,
ahead_word_1_WHI.jpg,ahead,1,word,,,,,,0,8,8,8,,,,,,,,,,,,,,,,,,,,,,,,,d,77.5124227053,,,,,,,,,,,,,,,,2018_Dec_19_1209,60.0418777748,Arrows_VVA_Direction,1004,Whi,
ahead_word_2_WHI.jpg,ahead,2,word,,,,,,0,9,9,9,,,,,,,,,,,,,,,,,,,,,,,,,d,6.53151427282,,,,,,,,,,,,,,,,2018_Dec_19_1209,60.0418777748,Arrows_VVA_Direction,1004,Whi,
left_word_1_WHI.jpg,left,1,word,,,,,,0,10,10,10,,,,,,,,,,,,,,,,,,,,,,,,,d,3.6822414017,,,,,,,,,,,,,,,,2018_Dec_19_1209,60.0418777748,Arrows_VVA_Direction,1004,Whi,
left_word_2_WHI.jpg,left,2,word,,,,,,0,11,11,11,,,,,,,,,,,,,,,,,,,,,,,,,d,5.33214097496,,,,,,,,,,,,,,,,2018_Dec_19_1209,60.0418777748,Arrows_VVA_Direction,1004,Whi,
right_image_1_WHI.jpg,right,1,image,,,,,,0,12,12,12,,,,,,,,,,,,,,,,,,,,,,,,,d,19.4421079218,,,,,,,,,,,,,,,,2018_Dec_19_1209,60.0418777748,Arrows_VVA_Direction,1004,Whi,
right_image_2_WHI.jpg,right,2,image,,,,,,0,13,13,13,,,,,,,,,,,,,,,,,,,,,,,,,d,31.3852580416,,,,,,,,,,,,,,,,2018_Dec_19_1209,60.0418777748,Arrows_VVA_Direction,1004,Whi,
ahead_image_1_WHI.jpg,ahead,1,image,,,,,,0,14,14,14,,,,,,,,,,,,,,,,,,,,,,,,,d,14.132968486,,,,,,,,,,,,,,,,2018_Dec_19_1209,60.0418777748,Arrows_VVA_Direction,1004,Whi,
ahead_image_2_WHI.jpg,ahead,2,image,,,,,,0,15,15,15,,,,,,,,,,,,,,,,,,,,,,,,,d,6.63685190614,,,,,,,,,,,,,,,,2018_Dec_19_1209,60.0418777748,Arrows_VVA_Direction,1004,Whi,
left_image_1_WHI.jpg,left,1,image,,,,,,0,16,16,16,,,,,,,,,,,,,,,,,,,,,,,,,d,53.3402407118,,,,,,,,,,,,,,,,2018_Dec_19_1209,60.0418777748,Arrows_VVA_Direction,1004,Whi,
left_image_2_WHI.jpg,left,2,image,,,,,,0,17,17,17,,,,,,,,,,,,,,,,,,,,,,,,,d,10.2798771228,,,,,,,,,,,,,,,,2018_Dec_19_1209,60.0418777748,Arrows_VVA_Direction,1004,Whi,
,,,,left_image_1_WHI.jpg,left,1,_WHI,image,,,,,0,0,0,0,0,0,0,0,,,,,,,,,,,,,,,,,,,d,48.793078074,f,8.762795652,,,,,,,,,,,,2018_Dec_19_1209,60.0418777748,Arrows_VVA_Direction,1004,Whi,
,,,,ahead_image_2_WHI.jpg,ahead,2,_WHI,image,,,,,0,0,0,0,0,1,1,1,,,,,,,,,,,,,,,,,,,,,f,3.15022733794,,,,,,,,,,,,2018_Dec_19_1209,60.0418777748,Arrows_VVA_Direction,1004,Whi,
,,,,right_image_3_WHI.jpg,right,3,_WHI,image,,,,,0,0,0,0,0,2,2,2,,,,,,,,,,,,,,,,,,,,,f,7.26458441268,,,,,,,,,,,,2018_Dec_19_1209,60.0418777748,Arrows_VVA_Direction,1004,Whi,
,,,,right_image_2_WHI.jpg,right,2,_WHI,image,,,,,0,0,0,0,0,3,3,3,,,,,,,,,,,,,,,,,,,,,f,2.13975448663,,,,,,,,,,,,2018_Dec_19_1209,60.0418777748,Arrows_VVA_Direction,1004,Whi,
,,,,left_image_3_WHI.jpg,left,3,_WHI,image,,,,,0,0,0,0,0,4,4,4,,,,,,,,,,,,,,,,,,,,,f,3.81627819077,,,,,,,,,,,,2018_Dec_19_1209,60.0418777748,Arrows_VVA_Direction,1004,Whi,
,,,,left_image_2_WHI.jpg,left,2,_WHI,image,,,,,0,0,0,0,0,5,5,5,,,,,,,,,,,,,,,,,,,,,f,4.16591988084,,,,,,,,,,,,2018_Dec_19_1209,60.0418777748,Arrows_VVA_Direction,1004,Whi,
,,,,right_image_1_WHI.jpg,right,1,_WHI,image,,,,,0,0,0,0,0,6,6,6,,,,,,,,,,,,,,,,,,,,,f,3.36656050572,,,,,,,,,,,,2018_Dec_19_1209,60.0418777748,Arrows_VVA_Direction,1004,Whi,
,,,,ahead_image_3_WHI.jpg,ahead,3,_WHI,image,,,,,0,0,0,0,0,7,7,7,,,,,,,,,,,,,,,,,,,,,f,2.90511379838,,,,,,,,,,,,2018_Dec_19_1209,60.0418777748,Arrows_VVA_Direction,1004,Whi,
,,,,right_schema_3_WHI.jpg,right,3,_WHI,schema,,,,,0,0,0,0,,,,,0,0,0,0,,,,,,,,,,,,,,,,,,,d,45.8281245747,f,12.1453548226,,,,,,,,2018_Dec_19_1209,60.0418777748,Arrows_VVA_Direction,1004,Whi,
,,,,right_schema_2_WHI.jpg,right,2,_WHI,schema,,,,,0,0,0,0,,,,,0,1,1,1,,,,,,,,,,,,,,,,,,,,,a,2.30592158548,,,,,,,,2018_Dec_19_1209,60.0418777748,Arrows_VVA_Direction,1004,Whi,
,,,,left_schema_3_WHI.jpg,left,3,_WHI,schema,,,,,0,0,0,0,,,,,0,2,2,2,,,,,,,,,,,,,,,,,,,,,f,2.08406885156,,,,,,,,2018_Dec_19_1209,60.0418777748,Arrows_VVA_Direction,1004,Whi,
,,,,ahead_schema_1_WHI.jpg,ahead,1,_WHI,schema,,,,,0,0,0,0,,,,,0,3,3,3,,,,,,,,,,,,,,,,,,,,,a,1.86700697075,,,,,,,,2018_Dec_19_1209,60.0418777748,Arrows_VVA_Direction,1004,Whi,
,,,,ahead_schema_3_WHI.jpg,ahead,3,_WHI,schema,,,,,0,0,0,0,,,,,0,4,4,4,,,,,,,,,,,,,,,,,,,,,f,2.11696401996,,,,,,,,2018_Dec_19_1209,60.0418777748,Arrows_VVA_Direction,1004,Whi,
,,,,left_schema_1_WHI.jpg,left,1,_WHI,schema,,,,,0,0,0,0,,,,,0,5,5,5,,,,,,,,,,,,,,,,,,,,,a,2.16673293359,,,,,,,,2018_Dec_19_1209,60.0418777748,Arrows_VVA_Direction,1004,Whi,
,,,,ahead_schema_2_WHI.jpg,ahead,2,_WHI,schema,,,,,0,0,0,0,,,,,0,6,6,6,,,,,,,,,,,,,,,,,,,,,f,24.5716854155,,,,,,,,2018_Dec_19_1209,60.0418777748,Arrows_VVA_Direction,1004,Whi,
,,,,left_schema_2_WHI.jpg,left,2,_WHI,schema,,,,,0,0,0,0,,,,,0,7,7,7,,,,,,,,,,,,,,,,,,,,,a,2.79976947143,,,,,,,,2018_Dec_19_1209,60.0418777748,Arrows_VVA_Direction,1004,Whi,
,,,,left_word_1_WHI.jpg,left,1,_WHI,word,,,,,0,0,0,0,,,,,,,,,0,0,0,0,,,,,,,,,,,,,,,d,4.98198566046,,,f,12.4111842502,,,,,,2018_Dec_19_1209,60.0418777748,Arrows_VVA_Direction,1004,Whi,
,,,,left_word_2_WHI.jpg,left,2,_WHI,word,,,,,0,0,0,0,,,,,,,,,0,1,1,1,,,,,,,,,,,,,,,,,,,f,2.40581060512,,,,,,2018_Dec_19_1209,60.0418777748,Arrows_VVA_Direction,1004,Whi,
,,,,right_word_2_WHI.jpg,right,2,_WHI,word,,,,,0,0,0,0,,,,,,,,,0,2,2,2,,,,,,,,,,,,,,,,,,,f,1.78432057662,,,,,,2018_Dec_19_1209,60.0418777748,Arrows_VVA_Direction,1004,Whi,
,,,,ahead_word_2_WHI.jpg,ahead,2,_WHI,word,,,,,0,0,0,0,,,,,,,,,0,3,3,3,,,,,,,,,,,,,,,,,,,a,3.08312504992,,,,,,2018_Dec_19_1209,60.0418777748,Arrows_VVA_Direction,1004,Whi,
,,,,ahead_word_1_WHI.jpg,ahead,1,_WHI,word,,,,,0,0,0,0,,,,,,,,,0,4,4,4,,,,,,,,,,,,,,,,,,,f,2.93347738022,,,,,,2018_Dec_19_1209,60.0418777748,Arrows_VVA_Direction,1004,Whi,
,,,,right_word_1_WHI.jpg,right,1,_WHI,word,,,,,0,0,0,0,,,,,,,,,0,5,5,5,,,,,,,,,,,,,,,,,,,a,2.31654303535,,,,,,2018_Dec_19_1209,60.0418777748,Arrows_VVA_Direction,1004,Whi,
,,,,left_word_3_WHI.jpg,left,3,_WHI,word,,,,,0,0,0,0,,,,,,,,,0,6,6,6,,,,,,,,,,,,,,,,,,,f,2.86659821316,,,,,,2018_Dec_19_1209,60.0418777748,Arrows_VVA_Direction,1004,Whi,
,,,,right_word_3_WHI.jpg,right,3,_WHI,word,,,,,0,0,0,0,,,,,,,,,0,7,7,7,,,,,,,,,,,,,,,,,,,a,2.45024915917,,,,,,2018_Dec_19_1209,60.0418777748,Arrows_VVA_Direction,1004,Whi,
,,,,ahead_schema_2_WHI.jpg,ahead,2,_WHI,schema,,,,,1,0,1,0,0,0,0,0,,,,,,,,,,,,,,,,,,,d,13.638043372,f,4.24953668934,,,,,,,,,,,,2018_Dec_19_1209,60.0418777748,Arrows_VVA_Direction,1004,Whi,
,,,,right_schema_1_WHI.jpg,right,1,_WHI,schema,,,,,1,0,1,0,0,1,1,1,,,,,,,,,,,,,,,,,,,,,a,2.06772122554,,,,,,,,,,,,2018_Dec_19_1209,60.0418777748,Arrows_VVA_Direction,1004,Whi,
,,,,left_schema_2_WHI.jpg,left,2,_WHI,schema,,,,,1,0,1,0,0,2,2,2,,,,,,,,,,,,,,,,,,,,,f,3.3991093904,,,,,,,,,,,,2018_Dec_19_1209,60.0418777748,Arrows_VVA_Direction,1004,Whi,
,,,,left_schema_1_WHI.jpg,left,1,_WHI,schema,,,,,1,0,1,0,0,3,3,3,,,,,,,,,,,,,,,,,,,,,f,2.38390325118,,,,,,,,,,,,2018_Dec_19_1209,60.0418777748,Arrows_VVA_Direction,1004,Whi,
,,,,right_schema_2_WHI.jpg,right,2,_WHI,schema,,,,,1,0,1,0,0,4,4,4,,,,,,,,,,,,,,,,,,,,,f,1.8836584875,,,,,,,,,,,,2018_Dec_19_1209,60.0418777748,Arrows_VVA_Direction,1004,Whi,
,,,,right_schema_3_WHI.jpg,right,3,_WHI,schema,,,,,1,0,1,0,0,5,5,5,,,,,,,,,,,,,,,,,,,,,f,2.1173147661,,,,,,,,,,,,2018_Dec_19_1209,60.0418777748,Arrows_VVA_Direction,1004,Whi,
,,,,ahead_schema_3_WHI.jpg,ahead,3,_WHI,schema,,,,,1,0,1,0,0,6,6,6,,,,,,,,,,,,,,,,,,,,,f,1.95054881061,,,,,,,,,,,,2018_Dec_19_1209,60.0418777748,Arrows_VVA_Direction,1004,Whi,
,,,,ahead_schema_1_WHI.jpg,ahead,1,_WHI,schema,,,,,1,0,1,0,0,7,7,7,,,,,,,,,,,,,,,,,,,,,f,2.38482250951,,,,,,,,,,,,2018_Dec_19_1209,60.0418777748,Arrows_VVA_Direction,1004,Whi,
,,,,left_word_1_WHI.jpg,left,1,_WHI,word,,,,,1,0,1,0,,,,,0,0,0,0,,,,,,,,,,,,,,,,,,,d,7.94737469193,f,5.14893814507,,,,,,,,2018_Dec_19_1209,60.0418777748,Arrows_VVA_Direction,1004,Whi,
,,,,left_word_2_WHI.jpg,left,2,_WHI,word,,,,,1,0,1,0,,,,,0,1,1,1,,,,,,,,,,,,,,,,,,,,,f,1.83421934664,,,,,,,,2018_Dec_19_1209,60.0418777748,Arrows_VVA_Direction,1004,Whi,
,,,,right_word_2_WHI.jpg,right,2,_WHI,word,,,,,1,0,1,0,,,,,0,2,2,2,,,,,,,,,,,,,,,,,,,,,f,1.75071142116,,,,,,,,2018_Dec_19_1209,60.0418777748,Arrows_VVA_Direction,1004,Whi,
,,,,ahead_word_2_WHI.jpg,ahead,2,_WHI,word,,,,,1,0,1,0,,,,,0,3,3,3,,,,,,,,,,,,,,,,,,,,,a,2.65020926514,,,,,,,,2018_Dec_19_1209,60.0418777748,Arrows_VVA_Direction,1004,Whi,
,,,,ahead_word_1_WHI.jpg,ahead,1,_WHI,word,,,,,1,0,1,0,,,,,0,4,4,4,,,,,,,,,,,,,,,,,,,,,f,2.23371295132,,,,,,,,2018_Dec_19_1209,60.0418777748,Arrows_VVA_Direction,1004,Whi,
,,,,right_word_1_WHI.jpg,right,1,_WHI,word,,,,,1,0,1,0,,,,,0,5,5,5,,,,,,,,,,,,,,,,,,,,,a,2.17195262517,,,,,,,,2018_Dec_19_1209,60.0418777748,Arrows_VVA_Direction,1004,Whi,
,,,,left_word_3_WHI.jpg,left,3,_WHI,word,,,,,1,0,1,0,,,,,0,6,6,6,,,,,,,,,,,,,,,,,,,,,f,2.03352035332,,,,,,,,2018_Dec_19_1209,60.0418777748,Arrows_VVA_Direction,1004,Whi,
,,,,right_word_3_WHI.jpg,right,3,_WHI,word,,,,,1,0,1,0,,,,,0,7,7,7,,,,,,,,,,,,,,,,,,,,,a,2.06768329498,,,,,,,,2018_Dec_19_1209,60.0418777748,Arrows_VVA_Direction,1004,Whi,
,,,,left_image_1_WHI.jpg,left,1,_WHI,image,,,,,1,0,1,0,,,,,,,,,0,0,0,0,,,,,,,,,,,,,,,d,4.84894220587,,,f,7.6312163171,,,,,,2018_Dec_19_1209,60.0418777748,Arrows_VVA_Direction,1004,Whi,
,,,,ahead_image_2_WHI.jpg,ahead,2,_WHI,image,,,,,1,0,1,0,,,,,,,,,0,1,1,1,,,,,,,,,,,,,,,,,,,f,14.4108919617,,,,,,2018_Dec_19_1209,60.0418777748,Arrows_VVA_Direction,1004,Whi,
,,,,right_image_3_WHI.jpg,right,3,_WHI,image,,,,,1,0,1,0,,,,,,,,,0,2,2,2,,,,,,,,,,,,,,,,,,,f,117.675194796,,,,,,2018_Dec_19_1209,60.0418777748,Arrows_VVA_Direction,1004,Whi,
,,,,right_image_2_WHI.jpg,right,2,_WHI,image,,,,,1,0,1,0,,,,,,,,,0,3,3,3,,,,,,,,,,,,,,,,,,,f,14.294066723,,,,,,2018_Dec_19_1209,60.0418777748,Arrows_VVA_Direction,1004,Whi,
,,,,left_image_3_WHI.jpg,left,3,_WHI,image,,,,,1,0,1,0,,,,,,,,,0,4,4,4,,,,,,,,,,,,,,,,,,,f,13.5446989362,,,,,,2018_Dec_19_1209,60.0418777748,Arrows_VVA_Direction,1004,Whi,
,,,,left_image_2_WHI.jpg,left,2,_WHI,image,,,,,1,0,1,0,,,,,,,,,0,5,5,5,,,,,,,,,,,,,,,,,,,f,15.910357587,,,,,,2018_Dec_19_1209,60.0418777748,Arrows_VVA_Direction,1004,Whi,
,,,,right_image_1_WHI.jpg,right,1,_WHI,image,,,,,1,0,1,0,,,,,,,,,0,6,6,6,,,,,,,,,,,,,,,,,,,f,23.140190465,,,,,,2018_Dec_19_1209,60.0418777748,Arrows_VVA_Direction,1004,Whi,
,,,,ahead_image_3_WHI.jpg,ahead,3,_WHI,image,,,,,1,0,1,0,,,,,,,,,0,7,7,7,,,,,,,,,,,,,,,,,,,f,15.3657478992,,,,,,2018_Dec_19_1209,60.0418777748,Arrows_VVA_Direction,1004,Whi,
,,,,,,,,,,,,,,,,,,,,,,,,,,,,,,,,,,,,,,,,,,,,,,,,,d,52.2249746423,,,,2018_Dec_19_1209,60.0418777748,Arrows_VVA_Direction,1004,Whi,
left_schema_8_WHI.jpg,left,8,schema,,,,,,,,,,,,,,,,,,,,,,,,,,0,0,0,0,,,,,,,,,,,,,,,,,,,f,7.14806574214,,2018_Dec_19_1209,60.0418777748,Arrows_VVA_Direction,1004,Whi,
left_schema_18_WHI.jpg,left,18,schema,,,,,,,,,,,,,,,,,,,,,,,,,,0,1,1,1,,,,,,,,,,,,,,,,,,,f,2.05026022597,0,2018_Dec_19_1209,60.0418777748,Arrows_VVA_Direction,1004,Whi,
ahead_schema_12_WHI.jpg,ahead,12,schema,,,,,,,,,,,,,,,,,,,,,,,,,,0,2,2,2,,,,,,,,,,,,,,,,,,,f,2.08367928237,,2018_Dec_19_1209,60.0418777748,Arrows_VVA_Direction,1004,Whi,
right_schema_19_WHI.jpg,right,19,schema,,,,,,,,,,,,,,,,,,,,,,,,,,0,3,3,3,,,,,,,,,,,,,,,,,,,a,3.0002864873,0,2018_Dec_19_1209,60.0418777748,Arrows_VVA_Direction,1004,Whi,
right_schema_7_WHI.jpg,right,7,schema,,,,,,,,,,,,,,,,,,,,,,,,,,0,4,4,4,,,,,,,,,,,,,,,,,,,f,1.66726909324,,2018_Dec_19_1209,60.0418777748,Arrows_VVA_Direction,1004,Whi,
right_schema_16_WHI.jpg,right,16,schema,,,,,,,,,,,,,,,,,,,,,,,,,,0,5,5,5,,,,,,,,,,,,,,,,,,,f,2.03348777766,0,2018_Dec_19_1209,60.0418777748,Arrows_VVA_Direction,1004,Whi,
ahead_schema_8_WHI.jpg,ahead,8,schema,,,,,,,,,,,,,,,,,,,,,,,,,,0,6,6,6,,,,,,,,,,,,,,,,,,,f,1.66716378015,,2018_Dec_19_1209,60.0418777748,Arrows_VVA_Direction,1004,Whi,
right_schema_11_WHI.jpg,right,11,schema,,,,,,,,,,,,,,,,,,,,,,,,,,0,7,7,7,,,,,,,,,,,,,,,,,,,a,6.06596794109,0,2018_Dec_19_1209,60.0418777748,Arrows_VVA_Direction,1004,Whi,
left_schema_21_WHI.jpg,left,21,schema,,,,,,,,,,,,,,,,,,,,,,,,,,0,8,8,8,,,,,,,,,,,,,,,,,,,f,2.3167715112,,2018_Dec_19_1209,60.0418777748,Arrows_VVA_Direction,1004,Whi,
left_schema_12_WHI.jpg,left,12,schema,,,,,,,,,,,,,,,,,,,,,,,,,,0,9,9,9,,,,,,,,,,,,,,,,,,,f,2.9324197869,0,2018_Dec_19_1209,60.0418777748,Arrows_VVA_Direction,1004,Whi,
ahead_schema_15_WHI.jpg,ahead,15,schema,,,,,,,,,,,,,,,,,,,,,,,,,,0,10,10,10,,,,,,,,,,,,,,,,,,,f,2.43286045079,,2018_Dec_19_1209,60.0418777748,Arrows_VVA_Direction,1004,Whi,
left_schema_16_WHI.jpg,left,16,schema,,,,,,,,,,,,,,,,,,,,,,,,,,0,11,11,11,,,,,,,,,,,,,,,,,,,a,2.16753259909,0,2018_Dec_19_1209,60.0418777748,Arrows_VVA_Direction,1004,Whi,
right_schema_20_WHI.jpg,right,20,schema,,,,,,,,,,,,,,,,,,,,,,,,,,0,12,12,12,,,,,,,,,,,,,,,,,,,f,2.00051228571,,2018_Dec_19_1209,60.0418777748,Arrows_VVA_Direction,1004,Whi,
right_schema_14_WHI.jpg,right,14,schema,,,,,,,,,,,,,,,,,,,,,,,,,,0,13,13,13,,,,,,,,,,,,,,,,,,,f,1.60077815664,0,2018_Dec_19_1209,60.0418777748,Arrows_VVA_Direction,1004,Whi,
ahead_schema_1_WHI.jpg,ahead,1,schema,,,,,,,,,,,,,,,,,,,,,,,,,,0,14,14,14,,,,,,,,,,,,,,,,,,,f,1.41768599474,,2018_Dec_19_1209,60.0418777748,Arrows_VVA_Direction,1004,Whi,
ahead_schema_16_WHI.jpg,ahead,16,schema,,,,,,,,,,,,,,,,,,,,,,,,,,0,15,15,15,,,,,,,,,,,,,,,,,,,a,4.68127885791,1,2018_Dec_19_1209,60.0418777748,Arrows_VVA_Direction,1004,Whi,
ahead_schema_3_WHI.jpg,ahead,3,schema,,,,,,,,,,,,,,,,,,,,,,,,,,0,16,16,16,,,,,,,,,,,,,,,,,,,f,1.96574334754,,2018_Dec_19_1209,60.0418777748,Arrows_VVA_Direction,1004,Whi,
right_schema_12_WHI.jpg,right,12,schema,,,,,,,,,,,,,,,,,,,,,,,,,,0,17,17,17,,,,,,,,,,,,,,,,,,,a,1.93411862984,0,2018_Dec_19_1209,60.0418777748,Arrows_VVA_Direction,1004,Whi,
left_schema_19_WHI.jpg,left,19,schema,,,,,,,,,,,,,,,,,,,,,,,,,,0,18,18,18,,,,,,,,,,,,,,,,,,,f,1.90104764212,,2018_Dec_19_1209,60.0418777748,Arrows_VVA_Direction,1004,Whi,
ahead_schema_17_WHI.jpg,ahead,17,schema,,,,,,,,,,,,,,,,,,,,,,,,,,0,19,19,19,,,,,,,,,,,,,,,,,,,a,1.80080118272,0,2018_Dec_19_1209,60.0418777748,Arrows_VVA_Direction,1004,Whi,
ahead_image_9_WHI.jpg,ahead,9,image,,,,,,,,,,,,,,,,,,,,,,,,,,0,20,20,20,,,,,,,,,,,,,,,,,,,f,14.3613394754,,2018_Dec_19_1209,60.0418777748,Arrows_VVA_Direction,1004,Whi,
left_image_2_WHI.jpg,left,2,image,,,,,,,,,,,,,,,,,,,,,,,,,,0,21,21,21,,,,,,,,,,,,,,,,,,,f,5.24865313036,1,2018_Dec_19_1209,60.0418777748,Arrows_VVA_Direction,1004,Whi,
right_image_7_WHI.jpg,right,7,image,,,,,,,,,,,,,,,,,,,,,,,,,,0,22,22,22,,,,,,,,,,,,,,,,,,,f,5.53145849259,,2018_Dec_19_1209,60.0418777748,Arrows_VVA_Direction,1004,Whi,
ahead_image_15_WHI.jpg,ahead,15,image,,,,,,,,,,,,,,,,,,,,,,,,,,0,23,23,23,,,,,,,,,,,,,,,,,,,a,2.18369101853,0,2018_Dec_19_1209,60.0418777748,Arrows_VVA_Direction,1004,Whi,
left_image_6_WHI.jpg,left,6,image,,,,,,,,,,,,,,,,,,,,,,,,,,0,24,24,24,,,,,,,,,,,,,,,,,,,f,8.01489957103,,2018_Dec_19_1209,60.0418777748,Arrows_VVA_Direction,1004,Whi,
right_image_16_WHI.jpg,right,16,image,,,,,,,,,,,,,,,,,,,,,,,,,,0,25,25,25,,,,,,,,,,,,,,,,,,,a,5.68190939772,0,2018_Dec_19_1209,60.0418777748,Arrows_VVA_Direction,1004,Whi,
left_image_3_WHI.jpg,left,3,image,,,,,,,,,,,,,,,,,,,,,,,,,,0,26,26,26,,,,,,,,,,,,,,,,,,,f,7.29767726625,,2018_Dec_19_1209,60.0418777748,Arrows_VVA_Direction,1004,Whi,
left_image_19_WHI.jpg,left,19,image,,,,,,,,,,,,,,,,,,,,,,,,,,0,27,27,27,,,,,,,,,,,,,,,,,,,f,5.0325533471,0,2018_Dec_19_1209,60.0418777748,Arrows_VVA_Direction,1004,Whi,
ahead_image_7_WHI.jpg,ahead,7,image,,,,,,,,,,,,,,,,,,,,,,,,,,0,28,28,28,,,,,,,,,,,,,,,,,,,f,4.14921392257,,2018_Dec_19_1209,60.0418777748,Arrows_VVA_Direction,1004,Whi,
right_image_9_WHI.jpg,right,9,image,,,,,,,,,,,,,,,,,,,,,,,,,,0,29,29,29,,,,,,,,,,,,,,,,,,,a,2.41718486508,0,2018_Dec_19_1209,60.0418777748,Arrows_VVA_Direction,1004,Whi,
left_image_15_WHI.jpg,left,15,image,,,,,,,,,,,,,,,,,,,,,,,,,,0,30,30,30,,,,,,,,,,,,,,,,,,,f,4.15018271375,,2018_Dec_19_1209,60.0418777748,Arrows_VVA_Direction,1004,Whi,
ahead_image_14_WHI.jpg,ahead,14,image,,,,,,,,,,,,,,,,,,,,,,,,,,0,31,31,31,,,,,,,,,,,,,,,,,,,a,3.31638863565,0,2018_Dec_19_1209,60.0418777748,Arrows_VVA_Direction,1004,Whi,
ahead_image_16_WHI.jpg,ahead,16,image,,,,,,,,,,,,,,,,,,,,,,,,,,0,32,32,32,,,,,,,,,,,,,,,,,,,f,2.58551445221,,2018_Dec_19_1209,60.0418777748,Arrows_VVA_Direction,1004,Whi,
ahead_image_3_WHI.jpg,ahead,3,image,,,,,,,,,,,,,,,,,,,,,,,,,,0,33,33,33,,,,,,,,,,,,,,,,,,,f,2.96696872781,0,2018_Dec_19_1209,60.0418777748,Arrows_VVA_Direction,1004,Whi,
right_image_1_WHI.jpg,right,1,image,,,,,,,,,,,,,,,,,,,,,,,,,,0,34,34,34,,,,,,,,,,,,,,,,,,,f,4.91605788115,,2018_Dec_19_1209,60.0418777748,Arrows_VVA_Direction,1004,Whi,
ahead_image_8_WHI.jpg,ahead,8,image,,,,,,,,,,,,,,,,,,,,,,,,,,0,35,35,35,,,,,,,,,,,,,,,,,,,a,2.43298896845,0,2018_Dec_19_1209,60.0418777748,Arrows_VVA_Direction,1004,Whi,
ahead_image_13_WHI.jpg,ahead,13,image,,,,,,,,,,,,,,,,,,,,,,,,,,0,36,36,36,,,,,,,,,,,,,,,,,,,f,3.89917654981,,2018_Dec_19_1209,60.0418777748,Arrows_VVA_Direction,1004,Whi,
ahead_image_10_WHI.jpg,ahead,10,image,,,,,,,,,,,,,,,,,,,,,,,,,,0,37,37,37,,,,,,,,,,,,,,,,,,,f,3.26665095895,0,2018_Dec_19_1209,60.0418777748,Arrows_VVA_Direction,1004,Whi,
left_image_7_WHI.jpg,left,7,image,,,,,,,,,,,,,,,,,,,,,,,,,,0,38,38,38,,,,,,,,,,,,,,,,,,,f,1.90056614711,,2018_Dec_19_1209,60.0418777748,Arrows_VVA_Direction,1004,Whi,
left_image_18_WHI.jpg,left,18,image,,,,,,,,,,,,,,,,,,,,,,,,,,0,39,39,39,,,,,,,,,,,,,,,,,,,f,3.99929181409,0,2018_Dec_19_1209,60.0418777748,Arrows_VVA_Direction,1004,Whi,
ahead_word_21_WHI.jpg,ahead,21,word,,,,,,,,,,,,,,,,,,,,,,,,,,0,40,40,40,,,,,,,,,,,,,,,,,,,f,10.5330582698,,2018_Dec_19_1209,60.0418777748,Arrows_VVA_Direction,1004,Whi,
right_word_10_WHI.jpg,right,10,word,,,,,,,,,,,,,,,,,,,,,,,,,,0,41,41,41,,,,,,,,,,,,,,,,,,,a,2.48387259437,0,2018_Dec_19_1209,60.0418777748,Arrows_VVA_Direction,1004,Whi,
ahead_word_3_WHI.jpg,ahead,3,word,,,,,,,,,,,,,,,,,,,,,,,,,,0,42,42,42,,,,,,,,,,,,,,,,,,,f,1.90004225911,,2018_Dec_19_1209,60.0418777748,Arrows_VVA_Direction,1004,Whi,
right_word_3_WHI.jpg,right,3,word,,,,,,,,,,,,,,,,,,,,,,,,,,0,43,43,43,,,,,,,,,,,,,,,,,,,a,1.89998201645,0,2018_Dec_19_1209,60.0418777748,Arrows_VVA_Direction,1004,Whi,
left_word_16_WHI.jpg,left,16,word,,,,,,,,,,,,,,,,,,,,,,,,,,0,44,44,44,,,,,,,,,,,,,,,,,,,f,2.06698269518,,2018_Dec_19_1209,60.0418777748,Arrows_VVA_Direction,1004,Whi,
left_word_17_WHI.jpg,left,17,word,,,,,,,,,,,,,,,,,,,,,,,,,,0,45,45,45,,,,,,,,,,,,,,,,,,,f,1.75001483754,0,2018_Dec_19_1209,60.0418777748,Arrows_VVA_Direction,1004,Whi,
left_word_15_WHI.jpg,left,15,word,,,,,,,,,,,,,,,,,,,,,,,,,,0,46,46,46,,,,,,,,,,,,,,,,,,,f,3.3996609454,,2018_Dec_19_1209,60.0418777748,Arrows_VVA_Direction,1004,Whi,
ahead_word_10_WHI.jpg,ahead,10,word,,,,,,,,,,,,,,,,,,,,,,,,,,0,47,47,47,,,,,,,,,,,,,,,,,,,a,1.86764554291,0,2018_Dec_19_1209,60.0418777748,Arrows_VVA_Direction,1004,Whi,
left_word_9_WHI.jpg,left,9,word,,,,,,,,,,,,,,,,,,,,,,,,,,0,48,48,48,,,,,,,,,,,,,,,,,,,f,1.6671802911,,2018_Dec_19_1209,60.0418777748,Arrows_VVA_Direction,1004,Whi,
ahead_word_18_WHI.jpg,ahead,18,word,,,,,,,,,,,,,,,,,,,,,,,,,,0,49,49,49,,,,,,,,,,,,,,,,,,,a,2.48387036316,0,2018_Dec_19_1209,60.0418777748,Arrows_VVA_Direction,1004,Whi,
right_word_13_WHI.jpg,right,13,word,,,,,,,,,,,,,,,,,,,,,,,,,,0,50,50,50,,,,,,,,,,,,,,,,,,,f,3.14965391709,,2018_Dec_19_1209,60.0418777748,Arrows_VVA_Direction,1004,Whi,
right_word_18_WHI.jpg,right,18,word,,,,,,,,,,,,,,,,,,,,,,,,,,0,51,51,51,,,,,,,,,,,,,,,,,,,f,1.9893718565,0,2018_Dec_19_1209,60.0418777748,Arrows_VVA_Direction,1004,Whi,
ahead_word_13_WHI.jpg,ahead,13,word,,,,,,,,,,,,,,,,,,,,,,,,,,0,52,52,52,,,,,,,,,,,,,,,,,,,f,2.41644053358,,2018_Dec_19_1209,60.0418777748,Arrows_VVA_Direction,1004,Whi,
right_word_9_WHI.jpg,right,9,word,,,,,,,,,,,,,,,,,,,,,,,,,,0,53,53,53,,,,,,,,,,,,,,,,,,,a,2.35014237348,0,2018_Dec_19_1209,60.0418777748,Arrows_VVA_Direction,1004,Whi,
left_word_3_WHI.jpg,left,3,word,,,,,,,,,,,,,,,,,,,,,,,,,,0,54,54,54,,,,,,,,,,,,,,,,,,,f,2.66668228513,,2018_Dec_19_1209,60.0418777748,Arrows_VVA_Direction,1004,Whi,
right_word_2_WHI.jpg,right,2,word,,,,,,,,,,,,,,,,,,,,,,,,,,0,55,55,55,,,,,,,,,,,,,,,,,,,a,2.88309711518,0,2018_Dec_19_1209,60.0418777748,Arrows_VVA_Direction,1004,Whi,
ahead_word_2_WHI.jpg,ahead,2,word,,,,,,,,,,,,,,,,,,,,,,,,,,0,56,56,56,,,,,,,,,,,,,,,,,,,f,1.85044827231,,2018_Dec_19_1209,60.0418777748,Arrows_VVA_Direction,1004,Whi,
ahead_word_4_WHI.jpg,ahead,4,word,,,,,,,,,,,,,,,,,,,,,,,,,,0,57,57,57,,,,,,,,,,,,,,,,,,,f,2.34988801559,0,2018_Dec_19_1209,60.0418777748,Arrows_VVA_Direction,1004,Whi,
right_word_15_WHI.jpg,right,15,word,,,,,,,,,,,,,,,,,,,,,,,,,,0,58,58,58,,,,,,,,,,,,,,,,,,,f,2.38374617403,,2018_Dec_19_1209,60.0418777748,Arrows_VVA_Direction,1004,Whi,
ahead_word_20_WHI.jpg,ahead,20,word,,,,,,,,,,,,,,,,,,,,,,,,,,0,59,59,59,,,,,,,,,,,,,,,,,,,a,1.96723201054,0,2018_Dec_19_1209,60.0418777748,Arrows_VVA_Direction,1004,Whi,
right_word_12_WHI.jpg,right,12,word,,,,,,,,,,,,,,,,,,,,,,,,,,0,60,60,60,,,,,,,,,,,,,,,,,,,f,3.01650871934,,2018_Dec_19_1209,60.0418777748,Arrows_VVA_Direction,1004,Whi,
ahead_word_8_WHI.jpg,ahead,8,word,,,,,,,,,,,,,,,,,,,,,,,,,,0,61,61,61,,,,,,,,,,,,,,,,,,,a,1.75061904908,0,2018_Dec_19_1209,60.0418777748,Arrows_VVA_Direction,1004,Whi,
left_word_12_WHI.jpg,left,12,word,,,,,,,,,,,,,,,,,,,,,,,,,,0,62,62,62,,,,,,,,,,,,,,,,,,,f,1.36752483448,,2018_Dec_19_1209,60.0418777748,Arrows_VVA_Direction,1004,Whi,
left_word_18_WHI.jpg,left,18,word,,,,,,,,,,,,,,,,,,,,,,,,,,0,63,63,63,,,,,,,,,,,,,,,,,,,f,1.50075883436,0,2018_Dec_19_1209,60.0418777748,Arrows_VVA_Direction,1004,Whi,
right_word_20_WHI.jpg,right,20,word,,,,,,,,,,,,,,,,,,,,,,,,,,0,64,64,64,,,,,,,,,,,,,,,,,,,f,1.7675842739,,2018_Dec_19_1209,60.0418777748,Arrows_VVA_Direction,1004,Whi,
ahead_word_5_WHI.jpg,ahead,5,word,,,,,,,,,,,,,,,,,,,,,,,,,,0,65,65,65,,,,,,,,,,,,,,,,,,,a,1.88331488123,0,2018_Dec_19_1209,60.0418777748,Arrows_VVA_Direction,1004,Whi,
ahead_word_1_WHI.jpg,ahead,1,word,,,,,,,,,,,,,,,,,,,,,,,,,,0,66,66,66,,,,,,,,,,,,,,,,,,,f,1.76698987968,,2018_Dec_19_1209,60.0418777748,Arrows_VVA_Direction,1004,Whi,
ahead_word_14_WHI.jpg,ahead,14,word,,,,,,,,,,,,,,,,,,,,,,,,,,0,67,67,67,,,,,,,,,,,,,,,,,,,f,3.00069792234,0,2018_Dec_19_1209,60.0418777748,Arrows_VVA_Direction,1004,Whi,
left_word_20_WHI.jpg,left,20,word,,,,,,,,,,,,,,,,,,,,,,,,,,0,68,68,68,,,,,,,,,,,,,,,,,,,f,1.33461003143,,2018_Dec_19_1209,60.0418777748,Arrows_VVA_Direction,1004,Whi,
ahead_word_15_WHI.jpg,ahead,15,word,,,,,,,,,,,,,,,,,,,,,,,,,,0,69,69,69,,,,,,,,,,,,,,,,,,,a,1.68407590218,0,2018_Dec_19_1209,60.0418777748,Arrows_VVA_Direction,1004,Whi,
ahead_word_9_WHI.jpg,ahead,9,word,,,,,,,,,,,,,,,,,,,,,,,,,,0,70,70,70,,,,,,,,,,,,,,,,,,,f,2.1836352383,,2018_Dec_19_1209,60.0418777748,Arrows_VVA_Direction,1004,Whi,
ahead_word_6_WHI.jpg,ahead,6,word,,,,,,,,,,,,,,,,,,,,,,,,,,0,71,71,71,,,,,,,,,,,,,,,,,,,f,2.98356401809,0,2018_Dec_19_1209,60.0418777748,Arrows_VVA_Direction,1004,Whi,
left_word_6_WHI.jpg,left,6,word,,,,,,,,,,,,,,,,,,,,,,,,,,0,72,72,72,,,,,,,,,,,,,,,,,,,f,1.90023146568,,2018_Dec_19_1209,60.0418777748,Arrows_VVA_Direction,1004,Whi,
right_word_19_WHI.jpg,right,19,word,,,,,,,,,,,,,,,,,,,,,,,,,,0,73,73,73,,,,,,,,,,,,,,,,,,,a,2.2999544387,0,2018_Dec_19_1209,60.0418777748,Arrows_VVA_Direction,1004,Whi,
right_word_8_WHI.jpg,right,8,word,,,,,,,,,,,,,,,,,,,,,,,,,,0,74,74,74,,,,,,,,,,,,,,,,,,,f,1.65007093015,,2018_Dec_19_1209,60.0418777748,Arrows_VVA_Direction,1004,Whi,
right_word_6_WHI.jpg,right,6,word,,,,,,,,,,,,,,,,,,,,,,,,,,0,75,75,75,,,,,,,,,,,,,,,,,,,f,1.46747588174,0,2018_Dec_19_1209,60.0418777748,Arrows_VVA_Direction,1004,Whi,
left_word_11_WHI.jpg,left,11,word,,,,,,,,,,,,,,,,,,,,,,,,,,0,76,76,76,,,,,,,,,,,,,,,,,,,f,1.50092126642,,2018_Dec_19_1209,60.0418777748,Arrows_VVA_Direction,1004,Whi,
ahead_word_12_WHI.jpg,ahead,12,word,,,,,,,,,,,,,,,,,,,,,,,,,,0,77,77,77,,,,,,,,,,,,,,,,,,,a,1.76675872637,0,2018_Dec_19_1209,60.0418777748,Arrows_VVA_Direction,1004,Whi,
left_word_21_WHI.jpg,left,21,word,,,,,,,,,,,,,,,,,,,,,,,,,,0,78,78,78,,,,,,,,,,,,,,,,,,,f,2.11731074992,,2018_Dec_19_1209,60.0418777748,Arrows_VVA_Direction,1004,Whi,
left_word_5_WHI.jpg,left,5,word,,,,,,,,,,,,,,,,,,,,,,,,,,0,79,79,79,,,,,,,,,,,,,,,,,,,f,1.80041875341,0,2018_Dec_19_1209,60.0418777748,Arrows_VVA_Direction,1004,Whi,
ahead_schema_10_WHI.jpg,ahead,10,schema,,,,,,,,,,,,,,,,,,,,,,,,,,0,80,80,80,,,,,,,,,,,,,,,,,,,f,2.95014183799,,2018_Dec_19_1209,60.0418777748,Arrows_VVA_Direction,1004,Whi,
ahead_schema_4_WHI.jpg,ahead,4,schema,,,,,,,,,,,,,,,,,,,,,,,,,,0,81,81,81,,,,,,,,,,,,,,,,,,,f,7.94761432383,0,2018_Dec_19_1209,60.0418777748,Arrows_VVA_Direction,1004,Whi,
right_schema_1_WHI.jpg,right,1,schema,,,,,,,,,,,,,,,,,,,,,,,,,,0,82,82,82,,,,,,,,,,,,,,,,,,,f,4.46575115677,,2018_Dec_19_1209,60.0418777748,Arrows_VVA_Direction,1004,Whi,
left_schema_5_WHI.jpg,left,5,schema,,,,,,,,,,,,,,,,,,,,,,,,,,0,83,83,83,,,,,,,,,,,,,,,,,,,a,1.9996358666,0,2018_Dec_19_1209,60.0418777748,Arrows_VVA_Direction,1004,Whi,
right_schema_10_WHI.jpg,right,10,schema,,,,,,,,,,,,,,,,,,,,,,,,,,0,84,84,84,,,,,,,,,,,,,,,,,,,f,3.34970014775,,2018_Dec_19_1209,60.0418777748,Arrows_VVA_Direction,1004,Whi,
right_schema_6_WHI.jpg,right,6,schema,,,,,,,,,,,,,,,,,,,,,,,,,,0,85,85,85,,,,,,,,,,,,,,,,,,,f,2.66677064103,0,2018_Dec_19_1209,60.0418777748,Arrows_VVA_Direction,1004,Whi,
left_schema_14_WHI.jpg,left,14,schema,,,,,,,,,,,,,,,,,,,,,,,,,,0,86,86,86,,,,,,,,,,,,,,,,,,,f,1.95015076283,,2018_Dec_19_1209,60.0418777748,Arrows_VVA_Direction,1004,Whi,
left_schema_3_WHI.jpg,left,3,schema,,,,,,,,,,,,,,,,,,,,,,,,,,0,87,87,87,,,,,,,,,,,,,,,,,,,f,1.6507572502,0,2018_Dec_19_1209,60.0418777748,Arrows_VVA_Direction,1004,Whi,
left_schema_20_WHI.jpg,left,20,schema,,,,,,,,,,,,,,,,,,,,,,,,,,0,88,88,88,,,,,,,,,,,,,,,,,,,f,3.31632482305,,2018_Dec_19_1209,60.0418777748,Arrows_VVA_Direction,1004,Whi,
right_schema_13_WHI.jpg,right,13,schema,,,,,,,,,,,,,,,,,,,,,,,,,,0,89,89,89,,,,,,,,,,,,,,,,,,,a,2.26689326831,0,2018_Dec_19_1209,60.0418777748,Arrows_VVA_Direction,1004,Whi,
ahead_schema_14_WHI.jpg,ahead,14,schema,,,,,,,,,,,,,,,,,,,,,,,,,,0,90,90,90,,,,,,,,,,,,,,,,,,,f,4.44907197302,,2018_Dec_19_1209,60.0418777748,Arrows_VVA_Direction,1004,Whi,
right_schema_15_WHI.jpg,right,15,schema,,,,,,,,,,,,,,,,,,,,,,,,,,0,91,91,91,,,,,,,,,,,,,,,,,,,a,1.60073040875,0,2018_Dec_19_1209,60.0418777748,Arrows_VVA_Direction,1004,Whi,
left_schema_9_WHI.jpg,left,9,schema,,,,,,,,,,,,,,,,,,,,,,,,,,0,92,92,92,,,,,,,,,,,,,,,,,,,f,2.70067565487,,2018_Dec_19_1209,60.0418777748,Arrows_VVA_Direction,1004,Whi,
left_schema_4_WHI.jpg,left,4,schema,,,,,,,,,,,,,,,,,,,,,,,,,,0,93,93,93,,,,,,,,,,,,,,,,,,,f,2.3672811864,0,2018_Dec_19_1209,60.0418777748,Arrows_VVA_Direction,1004,Whi,
right_schema_5_WHI.jpg,right,5,schema,,,,,,,,,,,,,,,,,,,,,,,,,,0,94,94,94,,,,,,,,,,,,,,,,,,,f,1.71717812683,,2018_Dec_19_1209,60.0418777748,Arrows_VVA_Direction,1004,Whi,
ahead_schema_2_WHI.jpg,ahead,2,schema,,,,,,,,,,,,,,,,,,,,,,,,,,0,95,95,95,,,,,,,,,,,,,,,,,,,a,1.88402306714,0,2018_Dec_19_1209,60.0418777748,Arrows_VVA_Direction,1004,Whi,
ahead_schema_19_WHI.jpg,ahead,19,schema,,,,,,,,,,,,,,,,,,,,,,,,,,0,96,96,96,,,,,,,,,,,,,,,,,,,f,1.55114356182,,2018_Dec_19_1209,60.0418777748,Arrows_VVA_Direction,1004,Whi,
left_schema_13_WHI.jpg,left,13,schema,,,,,,,,,,,,,,,,,,,,,,,,,,0,97,97,97,,,,,,,,,,,,,,,,,,,f,2.63354793107,1,2018_Dec_19_1209,60.0418777748,Arrows_VVA_Direction,1004,Whi,
right_schema_17_WHI.jpg,right,17,schema,,,,,,,,,,,,,,,,,,,,,,,,,,0,98,98,98,,,,,,,,,,,,,,,,,,,f,1.58374510305,,2018_Dec_19_1209,60.0418777748,Arrows_VVA_Direction,1004,Whi,
right_schema_8_WHI.jpg,right,8,schema,,,,,,,,,,,,,,,,,,,,,,,,,,0,99,99,99,,,,,,,,,,,,,,,,,,,f,1.73395102138,0,2018_Dec_19_1209,60.0418777748,Arrows_VVA_Direction,1004,Whi,
right_image_19_WHI.jpg,right,19,image,,,,,,,,,,,,,,,,,,,,,,,,,,0,100,100,100,,,,,,,,,,,,,,,,,,,f,7.76395811216,,2018_Dec_19_1209,60.0418777748,Arrows_VVA_Direction,1004,Whi,
left_image_20_WHI.jpg,left,20,image,,,,,,,,,,,,,,,,,,,,,,,,,,0,101,101,101,,,,,,,,,,,,,,,,,,,f,3.89939431586,1,2018_Dec_19_1209,60.0418777748,Arrows_VVA_Direction,1004,Whi,
left_image_9_WHI.jpg,left,9,image,,,,,,,,,,,,,,,,,,,,,,,,,,0,102,102,102,,,,,,,,,,,,,,,,,,,f,3.11607287487,,2018_Dec_19_1209,60.0418777748,Arrows_VVA_Direction,1004,Whi,
left_image_17_WHI.jpg,left,17,image,,,,,,,,,,,,,,,,,,,,,,,,,,0,103,103,103,,,,,,,,,,,,,,,,,,,f,5.09832985042,0,2018_Dec_19_1209,60.0418777748,Arrows_VVA_Direction,1004,Whi,
ahead_image_6_WHI.jpg,ahead,6,image,,,,,,,,,,,,,,,,,,,,,,,,,,0,104,104,104,,,,,,,,,,,,,,,,,,,f,3.54969773804,,2018_Dec_19_1209,60.0418777748,Arrows_VVA_Direction,1004,Whi,
right_image_5_WHI.jpg,right,5,image,,,,,,,,,,,,,,,,,,,,,,,,,,0,105,105,105,,,,,,,,,,,,,,,,,,,a,2.01673451775,0,2018_Dec_19_1209,60.0418777748,Arrows_VVA_Direction,1004,Whi,
left_image_4_WHI.jpg,left,4,image,,,,,,,,,,,,,,,,,,,,,,,,,,0,106,106,106,,,,,,,,,,,,,,,,,,,f,4.08295637048,,2018_Dec_19_1209,60.0418777748,Arrows_VVA_Direction,1004,Whi,
left_image_14_WHI.jpg,left,14,image,,,,,,,,,,,,,,,,,,,,,,,,,,0,107,107,107,,,,,,,,,,,,,,,,,,,f,2.73327942731,0,2018_Dec_19_1209,60.0418777748,Arrows_VVA_Direction,1004,Whi,
ahead_image_4_WHI.jpg,ahead,4,image,,,,,,,,,,,,,,,,,,,,,,,,,,0,108,108,108,,,,,,,,,,,,,,,,,,,f,1.73406749052,,2018_Dec_19_1209,60.0418777748,Arrows_VVA_Direction,1004,Whi,
ahead_image_20_WHI.jpg,ahead,20,image,,,,,,,,,,,,,,,,,,,,,,,,,,0,109,109,109,,,,,,,,,,,,,,,,,,,f,2.13255303473,0,2018_Dec_19_1209,60.0418777748,Arrows_VVA_Direction,1004,Whi,
right_image_21_WHI.jpg,right,21,image,,,,,,,,,,,,,,,,,,,,,,,,,,0,110,110,110,,,,,,,,,,,,,,,,,,,f,2.06710675044,,2018_Dec_19_1209,60.0418777748,Arrows_VVA_Direction,1004,Whi,
ahead_image_21_WHI.jpg,ahead,21,image,,,,,,,,,,,,,,,,,,,,,,,,,,0,111,111,111,,,,,,,,,,,,,,,,,,,a,1.90054115756,0,2018_Dec_19_1209,60.0418777748,Arrows_VVA_Direction,1004,Whi,
left_image_13_WHI.jpg,left,13,image,,,,,,,,,,,,,,,,,,,,,,,,,,0,112,112,112,,,,,,,,,,,,,,,,,,,f,3.73273456594,,2018_Dec_19_1209,60.0418777748,Arrows_VVA_Direction,1004,Whi,
ahead_image_11_WHI.jpg,ahead,11,image,,,,,,,,,,,,,,,,,,,,,,,,,,0,113,113,113,,,,,,,,,,,,,,,,,,,a,2.38332179798,0,2018_Dec_19_1209,60.0418777748,Arrows_VVA_Direction,1004,Whi,
right_image_3_WHI.jpg,right,3,image,,,,,,,,,,,,,,,,,,,,,,,,,,0,114,114,114,,,,,,,,,,,,,,,,,,,f,3.00038555301,,2018_Dec_19_1209,60.0418777748,Arrows_VVA_Direction,1004,Whi,
right_image_17_WHI.jpg,right,17,image,,,,,,,,,,,,,,,,,,,,,,,,,,0,115,115,115,,,,,,,,,,,,,,,,,,,a,3.58346218568,1,2018_Dec_19_1209,60.0418777748,Arrows_VVA_Direction,1004,Whi,
ahead_image_18_WHI.jpg,ahead,18,image,,,,,,,,,,,,,,,,,,,,,,,,,,0,116,116,116,,,,,,,,,,,,,,,,,,,f,2.86670575746,,2018_Dec_19_1209,60.0418777748,Arrows_VVA_Direction,1004,Whi,
ahead_image_12_WHI.jpg,ahead,12,image,,,,,,,,,,,,,,,,,,,,,,,,,,0,117,117,117,,,,,,,,,,,,,,,,,,,f,3.94999948682,0,2018_Dec_19_1209,60.0418777748,Arrows_VVA_Direction,1004,Whi,
left_image_12_WHI.jpg,left,12,image,,,,,,,,,,,,,,,,,,,,,,,,,,0,118,118,118,,,,,,,,,,,,,,,,,,,f,3.66554749196,,2018_Dec_19_1209,60.0418777748,Arrows_VVA_Direction,1004,Whi,
right_image_8_WHI.jpg,right,8,image,,,,,,,,,,,,,,,,,,,,,,,,,,0,119,119,119,,,,,,,,,,,,,,,,,,,f,2.78325584343,1,2018_Dec_19_1209,60.0418777748,Arrows_VVA_Direction,1004,Whi,
right_image_12_WHI.jpg,right,12,image,,,,,,,,,,,,,,,,,,,,,,,,,,0,120,120,120,,,,,,,,,,,,,,,,,,,f,9.51309608436,,2018_Dec_19_1209,60.0418777748,Arrows_VVA_Direction,1004,Whi,
ahead_image_5_WHI.jpg,ahead,5,image,,,,,,,,,,,,,,,,,,,,,,,,,,0,121,121,121,,,,,,,,,,,,,,,,,,,a,1.96745022283,0,2018_Dec_19_1209,60.0418777748,Arrows_VVA_Direction,1004,Whi,
right_image_13_WHI.jpg,right,13,image,,,,,,,,,,,,,,,,,,,,,,,,,,0,122,122,122,,,,,,,,,,,,,,,,,,,f,1.95051311126,,2018_Dec_19_1209,60.0418777748,Arrows_VVA_Direction,1004,Whi,
right_image_2_WHI.jpg,right,2,image,,,,,,,,,,,,,,,,,,,,,,,,,,0,123,123,123,,,,,,,,,,,,,,,,,,,a,2.10105237229,1,2018_Dec_19_1209,60.0418777748,Arrows_VVA_Direction,1004,Whi,
left_image_10_WHI.jpg,left,10,image,,,,,,,,,,,,,,,,,,,,,,,,,,0,124,124,124,,,,,,,,,,,,,,,,,,,f,1.76715186549,,2018_Dec_19_1209,60.0418777748,Arrows_VVA_Direction,1004,Whi,
right_image_11_WHI.jpg,right,11,image,,,,,,,,,,,,,,,,,,,,,,,,,,0,125,125,125,,,,,,,,,,,,,,,,,,,a,1.79964273873,0,2018_Dec_19_1209,60.0418777748,Arrows_VVA_Direction,1004,Whi,
left_image_16_WHI.jpg,left,16,image,,,,,,,,,,,,,,,,,,,,,,,,,,0,126,126,126,,,,,,,,,,,,,,,,,,,f,1.71742266739,,2018_Dec_19_1209,60.0418777748,Arrows_VVA_Direction,1004,Whi,
left_image_21_WHI.jpg,left,21,image,,,,,,,,,,,,,,,,,,,,,,,,,,0,127,127,127,,,,,,,,,,,,,,,,,,,f,2.16740765135,0,2018_Dec_19_1209,60.0418777748,Arrows_VVA_Direction,1004,Whi,
ahead_image_17_WHI.jpg,ahead,17,image,,,,,,,,,,,,,,,,,,,,,,,,,,0,128,128,128,,,,,,,,,,,,,,,,,,,f,2.40036422264,,2018_Dec_19_1209,60.0418777748,Arrows_VVA_Direction,1004,Whi,
right_image_15_WHI.jpg,right,15,image,,,,,,,,,,,,,,,,,,,,,,,,,,0,129,129,129,,,,,,,,,,,,,,,,,,,a,2.06664489006,0,2018_Dec_19_1209,60.0418777748,Arrows_VVA_Direction,1004,Whi,
right_image_10_WHI.jpg,right,10,image,,,,,,,,,,,,,,,,,,,,,,,,,,0,130,130,130,,,,,,,,,,,,,,,,,,,f,2.08405948048,,2018_Dec_19_1209,60.0418777748,Arrows_VVA_Direction,1004,Whi,
ahead_image_19_WHI.jpg,ahead,19,image,,,,,,,,,,,,,,,,,,,,,,,,,,0,131,131,131,,,,,,,,,,,,,,,,,,,a,2.56729037898,0,2018_Dec_19_1209,60.0418777748,Arrows_VVA_Direction,1004,Whi,
left_image_5_WHI.jpg,left,5,image,,,,,,,,,,,,,,,,,,,,,,,,,,0,132,132,132,,,,,,,,,,,,,,,,,,,f,1.99999419886,,2018_Dec_19_1209,60.0418777748,Arrows_VVA_Direction,1004,Whi,
left_image_11_WHI.jpg,left,11,image,,,,,,,,,,,,,,,,,,,,,,,,,,0,133,133,133,,,,,,,,,,,,,,,,,,,f,2.15038753878,0,2018_Dec_19_1209,60.0418777748,Arrows_VVA_Direction,1004,Whi,
ahead_image_2_WHI.jpg,ahead,2,image,,,,,,,,,,,,,,,,,,,,,,,,,,0,134,134,134,,,,,,,,,,,,,,,,,,,f,2.167082341,,2018_Dec_19_1209,60.0418777748,Arrows_VVA_Direction,1004,Whi,
left_image_8_WHI.jpg,left,8,image,,,,,,,,,,,,,,,,,,,,,,,,,,0,135,135,135,,,,,,,,,,,,,,,,,,,a,2.10073286308,0,2018_Dec_19_1209,60.0418777748,Arrows_VVA_Direction,1004,Whi,
right_image_18_WHI.jpg,right,18,image,,,,,,,,,,,,,,,,,,,,,,,,,,0,136,136,136,,,,,,,,,,,,,,,,,,,f,2.21687088928,,2018_Dec_19_1209,60.0418777748,Arrows_VVA_Direction,1004,Whi,
left_image_1_WHI.jpg,left,1,image,,,,,,,,,,,,,,,,,,,,,,,,,,0,137,137,137,,,,,,,,,,,,,,,,,,,f,2.43346600105,1,2018_Dec_19_1209,60.0418777748,Arrows_VVA_Direction,1004,Whi,
left_image_9_WHI.jpg,left,9,image,,,,,,,,,,,,,,,,,,,,,,,,,,0,138,138,138,,,,,,,,,,,,,,,,,,,f,2.20010870453,,2018_Dec_19_1209,60.0418777748,Arrows_VVA_Direction,1004,Whi,
left_image_8_WHI.jpg,left,8,image,,,,,,,,,,,,,,,,,,,,,,,,,,0,139,139,139,,,,,,,,,,,,,,,,,,,a,7.06428917904,1,2018_Dec_19_1209,60.0418777748,Arrows_VVA_Direction,1004,Whi,
right_schema_2_WHI.jpg,right,2,schema,,,,,,,,,,,,,,,,,,,,,,,,,,0,140,140,140,,,,,,,,,,,,,,,,,,,f,3.84937818421,,2018_Dec_19_1209,60.0418777748,Arrows_VVA_Direction,1004,Whi,
left_schema_17_WHI.jpg,left,17,schema,,,,,,,,,,,,,,,,,,,,,,,,,,0,141,141,141,,,,,,,,,,,,,,,,,,,a,2.44930937371,0,2018_Dec_19_1209,60.0418777748,Arrows_VVA_Direction,1004,Whi,
right_schema_18_WHI.jpg,right,18,schema,,,,,,,,,,,,,,,,,,,,,,,,,,0,142,142,142,,,,,,,,,,,,,,,,,,,f,1.90081648882,,2018_Dec_19_1209,60.0418777748,Arrows_VVA_Direction,1004,Whi,
right_schema_4_WHI.jpg,right,4,schema,,,,,,,,,,,,,,,,,,,,,,,,,,0,143,143,143,,,,,,,,,,,,,,,,,,,f,2.00037038078,0,2018_Dec_19_1209,60.0418777748,Arrows_VVA_Direction,1004,Whi,
ahead_schema_13_WHI.jpg,ahead,13,schema,,,,,,,,,,,,,,,,,,,,,,,,,,0,144,144,144,,,,,,,,,,,,,,,,,,,f,1.86770310812,,2018_Dec_19_1209,60.0418777748,Arrows_VVA_Direction,1004,Whi,
left_schema_7_WHI.jpg,left,7,schema,,,,,,,,,,,,,,,,,,,,,,,,,,0,145,145,145,,,,,,,,,,,,,,,,,,,a,1.71699293644,0,2018_Dec_19_1209,60.0418777748,Arrows_VVA_Direction,1004,Whi,
left_schema_10_WHI.jpg,left,10,schema,,,,,,,,,,,,,,,,,,,,,,,,,,0,146,146,146,,,,,,,,,,,,,,,,,,,f,1.31750290169,,2018_Dec_19_1209,60.0418777748,Arrows_VVA_Direction,1004,Whi,
left_schema_1_WHI.jpg,left,1,schema,,,,,,,,,,,,,,,,,,,,,,,,,,0,147,147,147,,,,,,,,,,,,,,,,,,,f,1.45143303895,0,2018_Dec_19_1209,60.0418777748,Arrows_VVA_Direction,1004,Whi,
ahead_schema_20_WHI.jpg,ahead,20,schema,,,,,,,,,,,,,,,,,,,,,,,,,,0,148,148,148,,,,,,,,,,,,,,,,,,,f,1.55059289931,,2018_Dec_19_1209,60.0418777748,Arrows_VVA_Direction,1004,Whi,
ahead_schema_5_WHI.jpg,ahead,5,schema,,,,,,,,,,,,,,,,,,,,,,,,,,0,149,149,149,,,,,,,,,,,,,,,,,,,a,2.10006082277,1,2018_Dec_19_1209,60.0418777748,Arrows_VVA_Direction,1004,Whi,
ahead_schema_6_WHI.jpg,ahead,6,schema,,,,,,,,,,,,,,,,,,,,,,,,,,0,150,150,150,,,,,,,,,,,,,,,,,,,f,2.08409741104,,2018_Dec_19_1209,60.0418777748,Arrows_VVA_Direction,1004,Whi,
right_schema_21_WHI.jpg,right,21,schema,,,,,,,,,,,,,,,,,,,,,,,,,,0,151,151,151,,,,,,,,,,,,,,,,,,,a,1.90082139748,0,2018_Dec_19_1209,60.0418777748,Arrows_VVA_Direction,1004,Whi,
left_schema_15_WHI.jpg,left,15,schema,,,,,,,,,,,,,,,,,,,,,,,,,,0,152,152,152,,,,,,,,,,,,,,,,,,,f,2.35062565347,,2018_Dec_19_1209,60.0418777748,Arrows_VVA_Direction,1004,Whi,
ahead_schema_21_WHI.jpg,ahead,21,schema,,,,,,,,,,,,,,,,,,,,,,,,,,0,153,153,153,,,,,,,,,,,,,,,,,,,a,1.933227931,0,2018_Dec_19_1209,60.0418777748,Arrows_VVA_Direction,1004,Whi,
right_schema_3_WHI.jpg,right,3,schema,,,,,,,,,,,,,,,,,,,,,,,,,,0,154,154,154,,,,,,,,,,,,,,,,,,,f,1.80055887336,,2018_Dec_19_1209,60.0418777748,Arrows_VVA_Direction,1004,Whi,
right_schema_9_WHI.jpg,right,9,schema,,,,,,,,,,,,,,,,,,,,,,,,,,0,155,155,155,,,,,,,,,,,,,,,,,,,f,1.40062973658,0,2018_Dec_19_1209,60.0418777748,Arrows_VVA_Direction,1004,Whi,
left_schema_11_WHI.jpg,left,11,schema,,,,,,,,,,,,,,,,,,,,,,,,,,0,156,156,156,,,,,,,,,,,,,,,,,,,f,1.06801976138,,2018_Dec_19_1209,60.0418777748,Arrows_VVA_Direction,1004,Whi,
ahead_schema_9_WHI.jpg,ahead,9,schema,,,,,,,,,,,,,,,,,,,,,,,,,,0,157,157,157,,,,,,,,,,,,,,,,,,,a,1.60127214643,0,2018_Dec_19_1209,60.0418777748,Arrows_VVA_Direction,1004,Whi,
right_schema_8_WHI.jpg,right,8,schema,,,,,,,,,,,,,,,,,,,,,,,,,,0,158,158,158,,,,,,,,,,,,,,,,,,,f,1.35121603151,,2018_Dec_19_1209,60.0418777748,Arrows_VVA_Direction,1004,Whi,
right_schema_5_WHI.jpg,right,5,schema,,,,,,,,,,,,,,,,,,,,,,,,,,0,159,159,159,,,,,,,,,,,,,,,,,,,f,1.01781665437,0,2018_Dec_19_1209,60.0418777748,Arrows_VVA_Direction,1004,Whi,
right_word_17_WHI.jpg,right,17,word,,,,,,,,,,,,,,,,,,,,,,,,,,0,160,160,160,,,,,,,,,,,,,,,,,,,f,4.3156300244,,2018_Dec_19_1209,60.0418777748,Arrows_VVA_Direction,1004,Whi,
right_word_5_WHI.jpg,right,5,word,,,,,,,,,,,,,,,,,,,,,,,,,,0,161,161,161,,,,,,,,,,,,,,,,,,,f,1.7171299327,0,2018_Dec_19_1209,60.0418777748,Arrows_VVA_Direction,1004,Whi,
left_word_1_WHI.jpg,left,1,word,,,,,,,,,,,,,,,,,,,,,,,,,,0,162,162,162,,,,,,,,,,,,,,,,,,,f,1.83430502509,,2018_Dec_19_1209,60.0418777748,Arrows_VVA_Direction,1004,Whi,
right_word_21_WHI.jpg,right,21,word,,,,,,,,,,,,,,,,,,,,,,,,,,0,163,163,163,,,,,,,,,,,,,,,,,,,a,1.93412443099,0,2018_Dec_19_1209,60.0418777748,Arrows_VVA_Direction,1004,Whi,
ahead_word_7_WHI.jpg,ahead,7,word,,,,,,,,,,,,,,,,,,,,,,,,,,0,164,164,164,,,,,,,,,,,,,,,,,,,f,1.65056536618,,2018_Dec_19_1209,60.0418777748,Arrows_VVA_Direction,1004,Whi,
left_word_19_WHI.jpg,left,19,word,,,,,,,,,,,,,,,,,,,,,,,,,,0,165,165,165,,,,,,,,,,,,,,,,,,,a,1.9172127552,0,2018_Dec_19_1209,60.0418777748,Arrows_VVA_Direction,1004,Whi,
ahead_word_16_WHI.jpg,ahead,16,word,,,,,,,,,,,,,,,,,,,,,,,,,,0,166,166,166,,,,,,,,,,,,,,,,,,,f,1.60080180746,,2018_Dec_19_1209,60.0418777748,Arrows_VVA_Direction,1004,Whi,
ahead_word_17_WHI.jpg,ahead,17,word,,,,,,,,,,,,,,,,,,,,,,,,,,0,167,167,167,,,,,,,,,,,,,,,,,,,f,2.35018253525,0,2018_Dec_19_1209,60.0418777748,Arrows_VVA_Direction,1004,Whi,
right_word_4_WHI.jpg,right,4,word,,,,,,,,,,,,,,,,,,,,,,,,,,0,168,168,168,,,,,,,,,,,,,,,,,,,f,3.03269302082,,2018_Dec_19_1209,60.0418777748,Arrows_VVA_Direction,1004,Whi,
ahead_word_19_WHI.jpg,ahead,19,word,,,,,,,,,,,,,,,,,,,,,,,,,,0,169,169,169,,,,,,,,,,,,,,,,,,,a,2.48365527456,0,2018_Dec_19_1209,60.0418777748,Arrows_VVA_Direction,1004,Whi,
ahead_word_11_WHI.jpg,ahead,11,word,,,,,,,,,,,,,,,,,,,,,,,,,,0,170,170,170,,,,,,,,,,,,,,,,,,,f,1.75049320887,,2018_Dec_19_1209,60.0418777748,Arrows_VVA_Direction,1004,Whi,
ahead_word_1_WHI.jpg,ahead,1,word,,,,,,,,,,,,,,,,,,,,,,,,,,0,171,171,171,,,,,,,,,,,,,,,,,,,f,3.6169026617,0,2018_Dec_19_1209,60.0418777748,Arrows_VVA_Direction,1004,Whi,
left_word_8_WHI.jpg,left,8,word,,,,,,,,,,,,,,,,,,,,,,,,,,0,172,172,172,,,,,,,,,,,,,,,,,,,f,1.66743107905,,2018_Dec_19_1209,60.0418777748,Arrows_VVA_Direction,1004,Whi,
left_word_14_WHI.jpg,left,14,word,,,,,,,,,,,,,,,,,,,,,,,,,,0,173,173,173,,,,,,,,,,,,,,,,,,,f,1.35089072116,0,2018_Dec_19_1209,60.0418777748,Arrows_VVA_Direction,1004,Whi,
right_word_11_WHI.jpg,right,11,word,,,,,,,,,,,,,,,,,,,,,,,,,,0,174,174,174,,,,,,,,,,,,,,,,,,,f,1.43416749333,,2018_Dec_19_1209,60.0418777748,Arrows_VVA_Direction,1004,Whi,
left_word_10_WHI.jpg,left,10,word,,,,,,,,,,,,,,,,,,,,,,,,,,0,175,175,175,,,,,,,,,,,,,,,,,,,a,2.18424301977,0,2018_Dec_19_1209,60.0418777748,Arrows_VVA_Direction,1004,Whi,
right_word_1_WHI.jpg,right,1,word,,,,,,,,,,,,,,,,,,,,,,,,,,0,176,176,176,,,,,,,,,,,,,,,,,,,f,1.50085700758,,2018_Dec_19_1209,60.0418777748,Arrows_VVA_Direction,1004,Whi,
right_word_16_WHI.jpg,right,16,word,,,,,,,,,,,,,,,,,,,,,,,,,,0,177,177,177,,,,,,,,,,,,,,,,,,,f,1.91735644509,0,2018_Dec_19_1209,60.0418777748,Arrows_VVA_Direction,1004,Whi,
right_word_7_WHI.jpg,right,7,word,,,,,,,,,,,,,,,,,,,,,,,,,,0,178,178,178,,,,,,,,,,,,,,,,,,,f,0.834353665453,,2018_Dec_19_1209,60.0418777748,Arrows_VVA_Direction,1004,Whi,
ahead_word_11_WHI.jpg,ahead,11,word,,,,,,,,,,,,,,,,,,,,,,,,,,0,179,179,179,,,,,,,,,,,,,,,,,,,a,35.9670008572,0,2018_Dec_19_1209,60.0418777748,Arrows_VVA_Direction,1004,Whi,
ahead_schema_18_WHI.jpg,ahead,18,schema,,,,,,,,,,,,,,,,,,,,,,,,,,0,180,180,180,,,,,,,,,,,,,,,,,,,f,4.7823472949,,2018_Dec_19_1209,60.0418777748,Arrows_VVA_Direction,1004,Whi,
ahead_schema_7_WHI.jpg,ahead,7,schema,,,,,,,,,,,,,,,,,,,,,,,,,,0,181,181,181,,,,,,,,,,,,,,,,,,,f,1.73401661894,0,2018_Dec_19_1209,60.0418777748,Arrows_VVA_Direction,1004,Whi,
left_schema_2_WHI.jpg,left,2,schema,,,,,,,,,,,,,,,,,,,,,,,,,,0,182,182,182,,,,,,,,,,,,,,,,,,,f,1.88395166843,,2018_Dec_19_1209,60.0418777748,Arrows_VVA_Direction,1004,Whi,
right_schema_10_WHI.jpg,right,10,schema,,,,,,,,,,,,,,,,,,,,,,,,,,0,183,183,183,,,,,,,,,,,,,,,,,,,a,1.84985030815,0,2018_Dec_19_1209,60.0418777748,Arrows_VVA_Direction,1004,Whi,
left_schema_6_WHI.jpg,left,6,schema,,,,,,,,,,,,,,,,,,,,,,,,,,0,184,184,184,,,,,,,,,,,,,,,,,,,f,1.23419221513,,2018_Dec_19_1209,60.0418777748,Arrows_VVA_Direction,1004,Whi,
ahead_schema_11_WHI.jpg,ahead,11,schema,,,,,,,,,,,,,,,,,,,,,,,,,,0,185,185,185,,,,,,,,,,,,,,,,,,,a,1.96660191697,0,2018_Dec_19_1209,60.0418777748,Arrows_VVA_Direction,1004,Whi,
ahead_schema_14_WHI.jpg,ahead,14,schema,,,,,,,,,,,,,,,,,,,,,,,,,,0,186,186,186,,,,,,,,,,,,,,,,,,,f,1.33362160561,,2018_Dec_19_1209,60.0418777748,Arrows_VVA_Direction,1004,Whi,
ahead_schema_3_WHI.jpg,ahead,3,schema,,,,,,,,,,,,,,,,,,,,,,,,,,0,187,187,187,,,,,,,,,,,,,,,,,,,f,1.46739823565,0,2018_Dec_19_1209,60.0418777748,Arrows_VVA_Direction,1004,Whi,
left_schema_6_WHI.jpg,left,6,schema,,,,,,,,,,,,,,,,,,,,,,,,,,0,188,188,188,,,,,,,,,,,,,,,,,,,f,1.50098909519,,2018_Dec_19_1209,60.0418777748,Arrows_VVA_Direction,1004,Whi,
left_schema_8_WHI.jpg,left,8,schema,,,,,,,,,,,,,,,,,,,,,,,,,,0,189,189,189,,,,,,,,,,,,,,,,,,,f,1.19995118114,0,2018_Dec_19_1209,60.0418777748,Arrows_VVA_Direction,1004,Whi,
right_schema_4_WHI.jpg,right,4,schema,,,,,,,,,,,,,,,,,,,,,,,,,,0,190,190,190,,,,,,,,,,,,,,,,,,,f,1.14991139867,,2018_Dec_19_1209,60.0418777748,Arrows_VVA_Direction,1004,Whi,
left_schema_4_WHI.jpg,left,4,schema,,,,,,,,,,,,,,,,,,,,,,,,,,0,191,191,191,,,,,,,,,,,,,,,,,,,a,1.76664047227,0,2018_Dec_19_1209,60.0418777748,Arrows_VVA_Direction,1004,Whi,
ahead_schema_16_WHI.jpg,ahead,16,schema,,,,,,,,,,,,,,,,,,,,,,,,,,0,192,192,192,,,,,,,,,,,,,,,,,,,f,1.93346176175,,2018_Dec_19_1209,60.0418777748,Arrows_VVA_Direction,1004,Whi,
ahead_schema_5_WHI.jpg,ahead,5,schema,,,,,,,,,,,,,,,,,,,,,,,,,,0,193,193,193,,,,,,,,,,,,,,,,,,,f,1.51620862166,0,2018_Dec_19_1209,60.0418777748,Arrows_VVA_Direction,1004,Whi,
ahead_schema_2_WHI.jpg,ahead,2,schema,,,,,,,,,,,,,,,,,,,,,,,,,,0,194,194,194,,,,,,,,,,,,,,,,,,,f,1.55015379727,,2018_Dec_19_1209,60.0418777748,Arrows_VVA_Direction,1004,Whi,
left_schema_18_WHI.jpg,left,18,schema,,,,,,,,,,,,,,,,,,,,,,,,,,0,195,195,195,,,,,,,,,,,,,,,,,,,a,1.56689634738,0,2018_Dec_19_1209,60.0418777748,Arrows_VVA_Direction,1004,Whi,
right_schema_11_WHI.jpg,right,11,schema,,,,,,,,,,,,,,,,,,,,,,,,,,0,196,196,196,,,,,,,,,,,,,,,,,,,f,1.55068482514,,2018_Dec_19_1209,60.0418777748,Arrows_VVA_Direction,1004,Whi,
right_schema_1_WHI.jpg,right,1,schema,,,,,,,,,,,,,,,,,,,,,,,,,,0,197,197,197,,,,,,,,,,,,,,,,,,,f,1.53318767998,0,2018_Dec_19_1209,60.0418777748,Arrows_VVA_Direction,1004,Whi,
right_schema_3_WHI.jpg,right,3,schema,,,,,,,,,,,,,,,,,,,,,,,,,,0,198,198,198,,,,,,,,,,,,,,,,,,,f,1.23293336671,,2018_Dec_19_1209,60.0418777748,Arrows_VVA_Direction,1004,Whi,
ahead_schema_11_WHI.jpg,ahead,11,schema,,,,,,,,,,,,,,,,,,,,,,,,,,0,199,199,199,,,,,,,,,,,,,,,,,,,a,2.48334067401,0,2018_Dec_19_1209,60.0418777748,Arrows_VVA_Direction,1004,Whi,
left_word_13_WHI.jpg,left,13,word,,,,,,,,,,,,,,,,,,,,,,,,,,0,200,200,200,,,,,,,,,,,,,,,,,,,f,2.41641018913,,2018_Dec_19_1209,60.0418777748,Arrows_VVA_Direction,1004,Whi,
ahead_word_13_WHI.jpg,ahead,13,word,,,,,,,,,,,,,,,,,,,,,,,,,,0,201,201,201,,,,,,,,,,,,,,,,,,,a,1.71665736252,0,2018_Dec_19_1209,60.0418777748,Arrows_VVA_Direction,1004,Whi,
right_word_14_WHI.jpg,right,14,word,,,,,,,,,,,,,,,,,,,,,,,,,,0,202,202,202,,,,,,,,,,,,,,,,,,,f,2.0830598986,,2018_Dec_19_1209,60.0418777748,Arrows_VVA_Direction,1004,Whi,
right_word_14_WHI.jpg,right,14,word,,,,,,,,,,,,,,,,,,,,,,,,,,0,203,203,203,,,,,,,,,,,,,,,,,,,f,17.2923165622,0,2018_Dec_19_1209,60.0418777748,Arrows_VVA_Direction,1004,Whi,
left_word_4_WHI.jpg,left,4,word,,,,,,,,,,,,,,,,,,,,,,,,,,0,204,204,204,,,,,,,,,,,,,,,,,,,f,10.080184762,,2018_Dec_19_1209,60.0418777748,Arrows_VVA_Direction,1004,Whi,
ahead_word_14_WHI.jpg,ahead,14,word,,,,,,,,,,,,,,,,,,,,,,,,,,0,205,205,205,,,,,,,,,,,,,,,,,,,a,1.90536369385,0,2018_Dec_19_1209,60.0418777748,Arrows_VVA_Direction,1004,Whi,
ahead_word_4_WHI.jpg,ahead,4,word,,,,,,,,,,,,,,,,,,,,,,,,,,0,206,206,206,,,,,,,,,,,,,,,,,,,f,4.16541562748,,2018_Dec_19_1209,60.0418777748,Arrows_VVA_Direction,1004,Whi,
ahead_word_6_WHI.jpg,ahead,6,word,,,,,,,,,,,,,,,,,,,,,,,,,,0,207,207,207,,,,,,,,,,,,,,,,,,,f,1.51680390837,0,2018_Dec_19_1209,60.0418777748,Arrows_VVA_Direction,1004,Whi,
right_word_10_WHI.jpg,right,10,word,,,,,,,,,,,,,,,,,,,,,,,,,,0,208,208,208,,,,,,,,,,,,,,,,,,,f,2.36626687854,,2018_Dec_19_1209,60.0418777748,Arrows_VVA_Direction,1004,Whi,
right_word_5_WHI.jpg,right,5,word,,,,,,,,,,,,,,,,,,,,,,,,,,0,209,209,209,,,,,,,,,,,,,,,,,,,f,1.66770328662,0,2018_Dec_19_1209,60.0418777748,Arrows_VVA_Direction,1004,Whi,
right_word_9_WHI.jpg,right,9,word,,,,,,,,,,,,,,,,,,,,,,,,,,0,210,210,210,,,,,,,,,,,,,,,,,,,f,1.85050940745,,2018_Dec_19_1209,60.0418777748,Arrows_VVA_Direction,1004,Whi,
left_word_7_WHI.jpg,left,7,word,,,,,,,,,,,,,,,,,,,,,,,,,,0,211,211,211,,,,,,,,,,,,,,,,,,,a,1.6012877649,0,2018_Dec_19_1209,60.0418777748,Arrows_VVA_Direction,1004,Whi,
ahead_word_18_WHI.jpg,ahead,18,word,,,,,,,,,,,,,,,,,,,,,,,,,,0,212,212,212,,,,,,,,,,,,,,,,,,,f,2.7667047311,,2018_Dec_19_1209,60.0418777748,Arrows_VVA_Direction,1004,Whi,
right_word_12_WHI.jpg,right,12,word,,,,,,,,,,,,,,,,,,,,,,,,,,0,213,213,213,,,,,,,,,,,,,,,,,,,a,2.59061098103,0,2018_Dec_19_1209,60.0418777748,Arrows_VVA_Direction,1004,Whi,
left_word_2_WHI.jpg,left,2,word,,,,,,,,,,,,,,,,,,,,,,,,,,0,214,214,214,,,,,,,,,,,,,,,,,,,f,2.26678750898,,2018_Dec_19_1209,60.0418777748,Arrows_VVA_Direction,1004,Whi,
left_word_18_WHI.jpg,left,18,word,,,,,,,,,,,,,,,,,,,,,,,,,,0,215,215,215,,,,,,,,,,,,,,,,,,,f,1.28422708894,0,2018_Dec_19_1209,60.0418777748,Arrows_VVA_Direction,1004,Whi,
right_word_6_WHI.jpg,right,6,word,,,,,,,,,,,,,,,,,,,,,,,,,,0,216,216,216,,,,,,,,,,,,,,,,,,,f,4.0662044493,,2018_Dec_19_1209,60.0418777748,Arrows_VVA_Direction,1004,Whi,
right_word_11_WHI.jpg,right,11,word,,,,,,,,,,,,,,,,,,,,,,,,,,0,217,217,217,,,,,,,,,,,,,,,,,,,f,1.35639466884,0,2018_Dec_19_1209,60.0418777748,Arrows_VVA_Direction,1004,Whi,
right_word_21_WHI.jpg,right,21,word,,,,,,,,,,,,,,,,,,,,,,,,,,0,218,218,218,,,,,,,,,,,,,,,,,,,f,1.40070381274,,2018_Dec_19_1209,60.0418777748,Arrows_VVA_Direction,1004,Whi,
left_word_17_WHI.jpg,left,17,word,,,,,,,,,,,,,,,,,,,,,,,,,,0,219,219,219,,,,,,,,,,,,,,,,,,,a,2.10011794174,0,2018_Dec_19_1209,60.0418777748,Arrows_VVA_Direction,1004,Whi,
right_image_6_WHI.jpg,right,6,image,,,,,,,,,,,,,,,,,,,,,,,,,,0,220,220,220,,,,,,,,,,,,,,,,,,,f,3.94970496716,,2018_Dec_19_1209,60.0418777748,Arrows_VVA_Direction,1004,Whi,
right_image_14_WHI.jpg,right,14,image,,,,,,,,,,,,,,,,,,,,,,,,,,0,221,221,221,,,,,,,,,,,,,,,,,,,f,2.76683592622,0,2018_Dec_19_1209,60.0418777748,Arrows_VVA_Direction,1004,Whi,
right_image_4_WHI.jpg,right,4,image,,,,,,,,,,,,,,,,,,,,,,,,,,0,222,222,222,,,,,,,,,,,,,,,,,,,f,4.13247449616,,2018_Dec_19_1209,60.0418777748,Arrows_VVA_Direction,1004,Whi,
left_image_13_WHI.jpg,left,13,image,,,,,,,,,,,,,,,,,,,,,,,,,,0,223,223,223,,,,,,,,,,,,,,,,,,,f,2.72209660513,1,2018_Dec_19_1209,60.0418777748,Arrows_VVA_Direction,1004,Whi,
left_image_6_WHI.jpg,left,6,image,,,,,,,,,,,,,,,,,,,,,,,,,,0,224,224,224,,,,,,,,,,,,,,,,,,,f,3.24934525156,,2018_Dec_19_1209,60.0418777748,Arrows_VVA_Direction,1004,Whi,
right_image_20_WHI.jpg,right,20,image,,,,,,,,,,,,,,,,,,,,,,,,,,0,225,225,225,,,,,,,,,,,,,,,,,,,a,3.39919149891,0,2018_Dec_19_1209,60.0418777748,Arrows_VVA_Direction,1004,Whi,
right_image_7_WHI.jpg,right,7,image,,,,,,,,,,,,,,,,,,,,,,,,,,0,226,226,226,,,,,,,,,,,,,,,,,,,f,3.96633060189,,2018_Dec_19_1209,60.0418777748,Arrows_VVA_Direction,1004,Whi,
right_image_17_WHI.jpg,right,17,image,,,,,,,,,,,,,,,,,,,,,,,,,,0,227,227,227,,,,,,,,,,,,,,,,,,,f,2.98353501236,0,2018_Dec_19_1209,60.0418777748,Arrows_VVA_Direction,1004,Whi,
left_image_5_WHI.jpg,left,5,image,,,,,,,,,,,,,,,,,,,,,,,,,,0,228,228,228,,,,,,,,,,,,,,,,,,,f,3.89957236638,,2018_Dec_19_1209,60.0418777748,Arrows_VVA_Direction,1004,Whi,
right_image_2_WHI.jpg,right,2,image,,,,,,,,,,,,,,,,,,,,,,,,,,0,229,229,229,,,,,,,,,,,,,,,,,,,f,5.03756062754,1,2018_Dec_19_1209,60.0418777748,Arrows_VVA_Direction,1004,Whi,
left_image_7_WHI.jpg,left,7,image,,,,,,,,,,,,,,,,,,,,,,,,,,0,230,230,230,,,,,,,,,,,,,,,,,,,f,4.04945565181,,2018_Dec_19_1209,60.0418777748,Arrows_VVA_Direction,1004,Whi,
ahead_image_1_WHI.jpg,ahead,1,image,,,,,,,,,,,,,,,,,,,,,,,,,,0,231,231,231,,,,,,,,,,,,,,,,,,,a,2.61719271894,0,2018_Dec_19_1209,60.0418777748,Arrows_VVA_Direction,1004,Whi,
right_image_12_WHI.jpg,right,12,image,,,,,,,,,,,,,,,,,,,,,,,,,,0,232,232,232,,,,,,,,,,,,,,,,,,,f,3.98308966294,,2018_Dec_19_1209,60.0418777748,Arrows_VVA_Direction,1004,Whi,
right_image_13_WHI.jpg,right,13,image,,,,,,,,,,,,,,,,,,,,,,,,,,0,233,233,233,,,,,,,,,,,,,,,,,,,f,2.13343213129,0,2018_Dec_19_1209,60.0418777748,Arrows_VVA_Direction,1004,Whi,
left_image_3_WHI.jpg,left,3,image,,,,,,,,,,,,,,,,,,,,,,,,,,0,234,234,234,,,,,,,,,,,,,,,,,,,f,1.85033358814,,2018_Dec_19_1209,60.0418777748,Arrows_VVA_Direction,1004,Whi,
left_image_12_WHI.jpg,left,12,image,,,,,,,,,,,,,,,,,,,,,,,,,,0,235,235,235,,,,,,,,,,,,,,,,,,,a,2.55021805611,1,2018_Dec_19_1209,60.0418777748,Arrows_VVA_Direction,1004,Whi,
ahead_image_7_WHI.jpg,ahead,7,image,,,,,,,,,,,,,,,,,,,,,,,,,,0,236,236,236,,,,,,,,,,,,,,,,,,,f,1.80061286864,,2018_Dec_19_1209,60.0418777748,Arrows_VVA_Direction,1004,Whi,
right_image_16_WHI.jpg,right,16,image,,,,,,,,,,,,,,,,,,,,,,,,,,0,237,237,237,,,,,,,,,,,,,,,,,,,a,1.35045786651,0,2018_Dec_19_1209,60.0418777748,Arrows_VVA_Direction,1004,Whi,
ahead_image_10_WHI.jpg,ahead,10,image,,,,,,,,,,,,,,,,,,,,,,,,,,0,238,238,238,,,,,,,,,,,,,,,,,,,f,1.85041658913,,2018_Dec_19_1209,60.0418777748,Arrows_VVA_Direction,1004,Whi,
left_image_20_WHI.jpg,left,20,image,,,,,,,,,,,,,,,,,,,,,,,,,,0,239,239,239,,,,,,,,,,,,,,,,,,,a,1.51727469358,0,2018_Dec_19_1209,60.0418777748,Arrows_VVA_Direction,1004,Whi,
right_image_21_WHI.jpg,right,21,image,,,,,,,,,,,,,,,,,,,,,,,,,,0,240,240,240,,,,,,,,,,,,,,,,,,,f,39.6151270652,,2018_Dec_19_1209,60.0418777748,Arrows_VVA_Direction,1004,Whi,
right_image_1_WHI.jpg,right,1,image,,,,,,,,,,,,,,,,,,,,,,,,,,0,241,241,241,,,,,,,,,,,,,,,,,,,f,3.10012597409,0,2018_Dec_19_1209,60.0418777748,Arrows_VVA_Direction,1004,Whi,
ahead_image_19_WHI.jpg,ahead,19,image,,,,,,,,,,,,,,,,,,,,,,,,,,0,242,242,242,,,,,,,,,,,,,,,,,,,f,2.916865579,,2018_Dec_19_1209,60.0418777748,Arrows_VVA_Direction,1004,Whi,
left_image_19_WHI.jpg,left,19,image,,,,,,,,,,,,,,,,,,,,,,,,,,0,243,243,243,,,,,,,,,,,,,,,,,,,a,2.22244891311,0,2018_Dec_19_1209,60.0418777748,Arrows_VVA_Direction,1004,Whi,
ahead_image_3_WHI.jpg,ahead,3,image,,,,,,,,,,,,,,,,,,,,,,,,,,0,244,244,244,,,,,,,,,,,,,,,,,,,f,1.60009362155,,2018_Dec_19_1209,60.0418777748,Arrows_VVA_Direction,1004,Whi,
ahead_image_9_WHI.jpg,ahead,9,image,,,,,,,,,,,,,,,,,,,,,,,,,,0,245,245,245,,,,,,,,,,,,,,,,,,,f,3.16631123499,0,2018_Dec_19_1209,60.0418777748,Arrows_VVA_Direction,1004,Whi,
left_image_11_WHI.jpg,left,11,image,,,,,,,,,,,,,,,,,,,,,,,,,,0,246,246,246,,,,,,,,,,,,,,,,,,,f,1.91661791474,,2018_Dec_19_1209,60.0418777748,Arrows_VVA_Direction,1004,Whi,
left_image_2_WHI.jpg,left,2,image,,,,,,,,,,,,,,,,,,,,,,,,,,0,247,247,247,,,,,,,,,,,,,,,,,,,f,8.14771990466,0,2018_Dec_19_1209,60.0418777748,Arrows_VVA_Direction,1004,Whi,
ahead_image_15_WHI.jpg,ahead,15,image,,,,,,,,,,,,,,,,,,,,,,,,,,0,248,248,248,,,,,,,,,,,,,,,,,,,f,2.10072884691,,2018_Dec_19_1209,60.0418777748,Arrows_VVA_Direction,1004,Whi,
left_image_18_WHI.jpg,left,18,image,,,,,,,,,,,,,,,,,,,,,,,,,,0,249,249,249,,,,,,,,,,,,,,,,,,,a,1.91746131194,0,2018_Dec_19_1209,60.0418777748,Arrows_VVA_Direction,1004,Whi,
ahead_image_20_WHI.jpg,ahead,20,image,,,,,,,,,,,,,,,,,,,,,,,,,,0,250,250,250,,,,,,,,,,,,,,,,,,,f,1.20091461741,,2018_Dec_19_1209,60.0418777748,Arrows_VVA_Direction,1004,Whi,
ahead_image_11_WHI.jpg,ahead,11,image,,,,,,,,,,,,,,,,,,,,,,,,,,0,251,251,251,,,,,,,,,,,,,,,,,,,f,1.76766325872,0,2018_Dec_19_1209,60.0418777748,Arrows_VVA_Direction,1004,Whi,
left_image_14_WHI.jpg,left,14,image,,,,,,,,,,,,,,,,,,,,,,,,,,0,252,252,252,,,,,,,,,,,,,,,,,,,f,1.58381784048,,2018_Dec_19_1209,60.0418777748,Arrows_VVA_Direction,1004,Whi,
ahead_image_5_WHI.jpg,ahead,5,image,,,,,,,,,,,,,,,,,,,,,,,,,,0,253,253,253,,,,,,,,,,,,,,,,,,,a,1.81695826344,0,2018_Dec_19_1209,60.0418777748,Arrows_VVA_Direction,1004,Whi,
left_image_16_WHI.jpg,left,16,image,,,,,,,,,,,,,,,,,,,,,,,,,,0,254,254,254,,,,,,,,,,,,,,,,,,,f,1.31748862195,,2018_Dec_19_1209,60.0418777748,Arrows_VVA_Direction,1004,Whi,
right_image_3_WHI.jpg,right,3,image,,,,,,,,,,,,,,,,,,,,,,,,,,0,255,255,255,,,,,,,,,,,,,,,,,,,f,2.10017639943,1,2018_Dec_19_1209,60.0418777748,Arrows_VVA_Direction,1004,Whi,
right_image_18_WHI.jpg,right,18,image,,,,,,,,,,,,,,,,,,,,,,,,,,0,256,256,256,,,,,,,,,,,,,,,,,,,f,1.26733594028,,2018_Dec_19_1209,60.0418777748,Arrows_VVA_Direction,1004,Whi,
right_image_6_WHI.jpg,right,6,image,,,,,,,,,,,,,,,,,,,,,,,,,,0,257,257,257,,,,,,,,,,,,,,,,,,,a,2.31733511473,1,2018_Dec_19_1209,60.0418777748,Arrows_VVA_Direction,1004,Whi,
ahead_image_21_WHI.jpg,ahead,21,image,,,,,,,,,,,,,,,,,,,,,,,,,,0,258,258,258,,,,,,,,,,,,,,,,,,,f,1.25104186329,,2018_Dec_19_1209,60.0418777748,Arrows_VVA_Direction,1004,Whi,
